Flex1,Flex2,Flex3,Flex4,Flex5,Ax,Ay,Az,Label
4095,2363,2832,2735,3408,0.77,-9.29,-0.92,A
4095,1889,2400,1839,1359,-0.36,-6.45,-0.37,A
4095,1982,2672,2065,1562,-0.63,-9.67,-0.99,A
4095,1945,2742,2129,1723,0.06,-9.33,-1.4,A
4095,2023,2823,2169,1804,-0.67,-9.58,-0.99,A
4095,1974,2800,2112,1832,-0.32,-9.58,-0.78,A
4095,2075,2825,2135,1910,-0.25,-9.77,-1.02,A
4095,2126,2921,2197,1946,-0.21,-9.5,-0.84,A
4095,2042,2729,2087,1851,-0.56,-9.51,-0.6,A
4095,2188,2935,2266,2022,-0.94,-9.57,-0.76,A
4095,2248,2953,2253,2030,-0.52,-9.58,-0.44,A
4095,2229,2969,2258,2076,0.33,-9.59,-0.89,A
4095,2251,2972,2270,2082,-0.24,-9.64,-1.14,A
4095,2259,2986,2293,2098,-0.31,-9.52,-0.88,A
4095,2262,2967,2278,2094,-0.08,-9.56,-1.16,A
4095,2278,2970,2299,2118,0.23,-9.51,-0.96,A
4095,2273,2998,2319,2110,-0.3,-9.53,-0.92,A
4095,2255,3033,2309,2118,-0.35,-9.54,-1.08,A
4095,2239,3014,2310,2131,-0.04,-9.57,-1.1,A
4095,2096,2839,2155,1985,-0.34,-9.54,-1.02,A
4095,2255,3059,2356,2160,-0.05,-9.5,-1.3,A
4095,2096,2851,2199,2032,-0.07,-9.39,-1.08,A
4095,2279,3149,2379,2223,-0.35,-9.56,-0.99,A
4095,2103,2970,2224,2147,-0.2,-9.61,-0.81,A
4095,2254,3269,2383,2231,-0.73,-9.44,-1.38,A
4095,2282,3299,2386,2199,-0.68,-9.44,-1.24,A
4095,2288,3289,2419,2225,-0.74,-9.38,-0.87,A
4095,2308,3302,2435,2282,-0.93,-9.53,-0.74,A
4095,2885,4095,3040,3265,-1.05,-10.37,-0.42,A
4089,4095,4095,4095,4095,-0.92,-9.7,3.4,B
2298,4095,4095,4095,4095,-2.54,-8.11,4.53,B
3744,4095,4095,4095,4095,0.97,-9.6,2.46,B
2615,4095,4095,4095,4095,1.72,-9.55,2.55,B
2987,4095,4095,4095,4095,1.57,-9.54,2.53,B
3920,4095,4095,4095,4095,0.77,-9.69,2.67,B
2955,4095,4095,4095,4095,1.34,-9.78,2.9,B
2945,4095,4095,4095,4095,1.7,-9.66,2.57,B
3027,4095,4095,4095,4095,1.57,-9.74,3.39,B
4069,4095,4095,4095,4095,1.62,-9.68,3.62,B
3457,4095,4095,4095,4095,1.67,-9.44,3.71,B
2973,4095,4095,4095,4095,1.73,-9.33,3.65,B
2647,4095,4095,4095,4095,1.23,-9.37,3.75,B
2962,4095,4095,4095,4095,1.97,-9.47,3.45,B
2974,4095,4095,4095,4095,1.76,-9.37,3.66,B
3165,4095,4095,4095,4095,1.68,-9.09,3.82,B
3165,4095,4095,4095,4095,1.68,-9.09,3.82,B
3165,4095,4095,4095,4095,1.68,-9.09,3.82,B
3165,4095,4095,4095,4095,1.68,-9.09,3.82,B
3165,4095,4095,4095,4095,1.68,-9.09,3.82,B
3165,4095,4095,4095,4095,1.68,-9.09,3.82,B
3165,4095,4095,4095,4095,1.68,-9.09,3.82,B
3165,4095,4095,4095,4095,1.68,-9.09,3.82,B
3165,4095,4095,4095,4095,1.68,-9.09,3.82,B
3165,4095,4095,4095,4095,1.68,-9.09,3.82,B
3165,4095,4095,4095,4095,1.68,-9.09,3.82,B
3165,4095,4095,4095,4095,1.68,-9.09,3.82,B
3165,4095,4095,4095,4095,1.68,-9.09,3.82,B
4095,4095,3892,3685,2921,0.1,-9.36,3.99,D
4095,4095,3952,3034,2534,-0.96,-9.49,4.39,D
4095,4095,2991,2448,2167,-0.45,-8.72,4.48,D
4095,4095,3155,2544,2258,-0.4,-9.44,4.31,D
4095,4095,3097,2513,2251,-0.36,-9.44,4.26,D
4095,4095,3010,2512,2235,-0.11,-9.5,3.94,D
4095,4095,3070,2611,2329,-0.85,-9.46,3.49,D
4095,4095,3137,2640,2388,-0.28,-9.39,3.28,D
4095,4095,3144,2651,2354,-0.92,-9.44,3.68,D
4095,4095,3104,2656,2385,-0.58,-9.54,3.09,D
4095,4095,3171,2687,2365,-0.68,-9.57,3.05,D
4095,4095,3168,2709,2387,-0.57,-9.54,3.22,D
4095,4095,3162,2777,2403,-0.84,-9.68,3.47,D
4095,4095,3185,2783,2399,-0.38,-9.57,3.32,D
4095,4095,3205,2813,2421,-0.86,-9.69,3.41,D
4095,4095,2939,2558,2219,-0.78,-9.67,3.2,D
4095,4095,3225,2829,2464,-1.13,-9.71,3.24,D
4095,4095,3263,2855,2502,-0.43,-9.71,3.01,D
4095,4095,3275,2878,2514,-0.84,-9.74,3.08,D
4095,4095,3332,2866,2521,-0.65,-9.56,3.13,D
4095,4095,3335,2890,2559,-0.71,-9.49,3.24,D
4095,4095,3321,2935,2559,-0.51,-9.55,3.08,D
1322,3454,3007,2286,2065,0.11,-9.31,3.44,E
1263,2545,2605,2082,1827,0.37,-9.27,3.7,E
1330,2480,2685,2154,1805,0.29,-9.34,3.96,E
1465,2490,2862,2274,1889,0.11,-9.38,3.94,E
1447,2469,2854,2267,1885,0.33,-9.34,3.59,E
1453,2462,2847,2287,1875,-0.48,-9.37,3.88,E
1555,2459,2871,2317,1891,-0.17,-9.5,3.78,E
1584,2464,2912,2323,1922,-0.13,-9.41,3.89,E
1570,2437,3039,2314,1936,0.15,-9.57,3.7,E
1681,2454,3117,2323,1980,-0.19,-9.66,3.66,E
1714,2454,3184,2385,1984,-0.18,-9.5,3.81,E
1743,2433,3193,2376,1958,0.08,-9.45,3.65,E
1774,2445,3206,2438,2000,-0.34,-9.46,3.57,E
1808,2431,3175,2363,2005,-0.33,-9.45,3.55,E
1817,2481,3152,2393,1993,-0.06,-9.44,3.59,E
1838,2486,3277,2436,2016,0.2,-9.5,3.73,E
1789,2375,3133,2363,1963,-0.27,-9.45,3.78,E
1877,2513,3325,2448,2026,0.08,-9.49,3.55,E
1905,2502,3413,2463,2022,-0.25,-9.52,3.72,E
1914,2508,3345,2471,2047,0.11,-9.41,3.54,E
1942,2493,3430,2469,2059,0.07,-9.51,3.55,E
1996,2470,3445,2486,2046,0.07,-9.53,3.77,E
1986,2479,3468,2509,2033,-0.2,-9.45,3.67,E
2059,2514,3475,2501,2043,-0.05,-9.59,3.62,E
2064,2531,3526,2519,2067,-0.03,-9.51,3.6,E
4095,3021,4095,4095,4095,-0.98,-8.92,5.15,F
4095,3358,4095,4095,4095,-0.26,-8.94,4.86,F
4095,3440,4095,4095,4095,-0.59,-8.9,5.11,F
4095,3157,4095,4095,4095,0.07,-8.83,5.02,F
4095,3233,4095,4095,4095,-0.68,-9.0,5.28,F
4095,3751,4095,4095,4095,-0.49,-8.96,5.25,F
4095,3334,4095,4095,4095,-0.05,-9.04,5.09,F
4095,3977,4095,4095,4095,-0.14,-9.22,5.04,F
4095,4033,4095,4095,4095,-0.16,-9.08,5.08,F
4095,3973,4095,4095,4095,-0.13,-9.09,5.09,F
4095,3218,4095,4095,4095,1.6,-8.5,5.91,F
4095,3668,4095,4095,4095,1.6,-8.43,5.65,F
4095,3649,4095,4095,4095,1.62,-8.52,5.89,F
4095,3611,4095,4095,4095,1.34,-8.53,6.05,F
4095,3835,4095,4095,4095,1.77,-8.53,5.8,F
4095,3824,4095,4095,4095,1.53,-8.45,6.1,F
4095,4095,2297,2061,2093,-1.08,-8.68,6.96,G
4095,4095,2016,1930,1786,-1.81,-7.65,7.14,G
4095,4095,2044,1982,1861,-1.91,-7.63,7.4,G
4095,4095,2074,2058,1919,-1.36,-7.54,7.22,G
4095,4095,2129,2085,1982,-1.34,-7.64,7.58,G
4095,4095,1963,1921,1766,-1.19,-7.76,7.39,G
4095,4095,2203,2201,2080,-1.2,-7.78,7.32,G
4095,4095,2257,2221,2118,-1.12,-7.89,6.95,G
4095,4095,2332,2278,2153,-0.75,-8.21,6.69,G
4095,4095,2366,2306,2165,-0.69,-8.26,6.49,G
4095,4095,2396,2317,2169,-0.42,-8.11,6.49,G
4095,4095,2449,2363,2192,-0.86,-8.24,6.72,G
4095,4095,2219,2166,1993,-0.8,-8.14,6.66,G
4095,4095,2497,2411,2207,-0.85,-8.1,6.62,G
4095,4095,2512,2404,2198,-0.81,-8.16,6.62,G
4095,4095,2551,2435,2219,-0.87,-8.16,6.66,G
4095,4095,2559,2479,2247,-0.87,-8.21,6.7,G
4095,4095,2612,2481,2287,-0.78,-8.2,6.56,G
4095,4095,2599,2495,2311,-0.6,-8.27,6.52,G
4095,4095,2636,2529,2343,-0.53,-8.21,6.46,G
4095,4095,2642,2590,2363,-0.88,-8.22,6.52,G
4095,4095,2624,2613,2369,-0.88,-8.27,6.69,G
4095,4095,2650,2659,2420,-0.82,-8.25,6.61,G
4095,4095,2668,2639,2445,-0.81,-8.18,6.48,G
4095,4095,2405,2418,2225,-0.72,-8.14,6.58,G
4095,4095,2559,2635,2441,-0.76,-8.15,6.57,G
4095,4095,2433,2510,2248,-0.79,-8.24,6.72,G
4095,4095,2442,2494,2256,-0.65,-8.29,6.5,G
4095,4095,2718,2726,2480,-0.87,-8.32,6.48,G
4095,4095,2738,2717,2489,-0.55,-8.13,6.65,G
4095,4095,2730,2765,2510,-0.78,-7.65,6.27,G
4095,4095,4095,3090,2455,2.41,-4.12,9.29,H
4095,4095,4095,2950,2583,5.68,-2.95,9.35,H
4095,4095,4095,2559,2234,5.5,-2.8,9.33,H
4095,4095,4095,2899,2645,5.54,-2.74,9.14,H
4095,4095,4095,2682,2534,5.36,-2.93,9.32,H
4095,4095,4095,3001,2865,4.91,-2.99,9.29,H
4095,4095,4095,2768,2633,5.12,-2.98,9.46,H
4095,4095,4095,3137,3025,5.06,-3.01,9.41,H
4095,4095,4095,3127,3063,5.42,-3.03,9.19,H
4095,4095,4095,3154,3070,5.05,-2.95,9.37,H
4095,4095,4095,3216,3115,5.37,-3.0,9.36,H
4095,4095,4095,3227,3105,5.16,-2.92,9.25,H
4095,4095,4095,3280,3111,5.08,-3.02,9.42,H
4095,4095,4095,3281,3147,5.04,-3.03,9.26,H
4095,4095,4095,3287,3139,5.06,-3.06,9.33,H
4095,4095,4095,3344,3118,5.07,-3.09,9.29,H
4095,4095,4095,3415,3131,5.22,-3.02,9.33,H
4095,4095,4095,3387,3114,4.87,-2.98,9.54,H
4095,4095,4095,3439,3199,5.21,-3.12,9.31,H
4095,4095,4095,3410,3210,5.28,-3.17,9.39,H
4095,4095,4095,3136,2826,5.04,-3.6,9.22,H
4095,4095,4095,3534,3258,4.86,-4.59,9.0,H
4095,4095,4095,3583,3314,5.37,-4.62,8.37,H
4095,4095,4095,3632,3280,5.0,-4.65,8.2,H
4095,4095,4095,3684,3299,4.92,-5.09,8.42,H
4095,4095,4095,3648,3360,5.43,-4.69,8.1,H
4095,4095,4095,3661,3362,5.3,-4.77,8.18,H
4095,4095,4095,3670,3353,5.63,-4.63,7.76,H
4095,2171,2637,4095,4095,-1.0,-10.41,3.58,I
4095,1987,2678,4095,4095,-1.43,-8.93,3.85,I
4095,1936,2639,4095,4095,-1.89,-9.71,3.91,I
4095,2030,2179,4095,4095,-1.22,-9.65,3.34,I
4095,2186,2620,3611,4095,0.09,-9.16,3.26,I
4095,2206,2805,3613,4095,-0.56,-9.24,3.37,I
4095,2193,2821,3738,4095,-1.06,-9.46,3.62,I
4095,2239,2880,3813,4095,0.36,-9.12,3.04,I
4095,2263,2874,3859,4095,-0.9,-9.59,3.49,I
4095,2277,2901,3920,4095,-0.64,-9.53,3.33,I
4095,2302,2941,3920,4095,-0.8,-9.58,3.45,I
4095,2315,2977,4030,4095,-0.78,-9.4,3.61,I
4095,2294,3061,4095,4095,-0.7,-9.55,2.97,I
4095,2122,2855,3756,4095,-0.83,-9.57,3.48,I
4095,2352,3163,4095,4095,-0.29,-9.28,3.54,I
4095,2342,3172,4095,4095,-0.31,-9.6,3.15,I
4095,2382,3173,4095,4095,-0.29,-9.53,3.31,I
4095,2394,3215,4095,4095,-0.45,-9.52,3.69,I
4095,2413,3246,4095,4095,-0.72,-9.61,3.7,I
4095,2422,3201,4095,4095,-0.54,-9.56,3.17,I
4095,2393,3203,4095,4095,-0.32,-9.33,3.53,I
4095,2373,3233,4095,4095,-0.43,-9.5,3.5,I
4095,2375,3280,4095,4095,-0.98,-9.33,3.82,I
4095,1895,2619,2669,4095,3.78,-9.26,0.76,J
4095,2011,2897,3000,4095,3.22,-8.9,1.1,J
4095,2020,2938,2960,4095,2.42,-9.42,1.48,J
4095,2094,2942,3203,4095,2.81,-9.47,1.2,J
4095,2037,3008,3251,4095,3.12,-9.31,1.38,J
4095,2097,3070,3359,4095,2.82,-9.5,1.26,J
4095,2117,3020,3390,4095,2.91,-9.41,1.41,J
4095,1968,2809,3143,4095,2.76,-9.46,1.48,J
4095,2139,3051,3443,4095,2.88,-9.42,1.3,J
4095,2176,3152,3620,4095,3.15,-9.3,1.19,J
4095,2192,3159,3618,4095,2.91,-9.24,1.47,J
4095,2017,2931,3322,4095,2.61,-9.35,1.58,J
4095,2187,3145,3602,4095,3.31,-9.39,1.23,J
4095,2208,3166,3559,4095,3.01,-9.26,1.32,J
4095,2208,3200,3637,4095,2.93,-9.37,1.3,J
4095,2198,3216,3667,4095,3.1,-9.31,1.18,J
4095,2229,3211,3671,4095,3.04,-9.28,1.45,J
4095,2224,3181,3689,4095,2.85,-9.26,1.44,J
4095,2232,3213,3741,4095,3.22,-9.34,1.26,J
4095,2256,3297,3762,4095,2.96,-9.51,1.21,J
4095,2262,3258,3735,4095,2.98,-9.39,1.4,J
4095,2095,3082,3429,4095,3.09,-9.23,1.36,J
4095,2282,3295,3760,4095,2.95,-9.36,1.67,J
0,0,0,0,0,0.0,0.0,0.0,
0,0,0,0,0,0.0,0.0,0.0,
0,0,0,0,0,0.0,0.0,0.0,
0,0,0,0,0,0.0,0.0,0.0,
0,0,0,0,0,0.0,0.0,0.0,
0,0,0,0,0,0.0,0.0,0.0,
0,0,0,0,0,0.0,0.0,0.0,
0,0,0,0,0,0.0,0.0,0.0,
0,0,0,0,0,0.0,0.0,0.0,
0,0,0,0,0,0.0,0.0,0.0,
0,0,0,0,0,0.0,0.0,0.0,
0,0,0,0,0,0.0,0.0,0.0,
0,0,0,0,0,0.0,0.0,0.0,
0,0,0,0,0,0.0,0.0,0.0,
0,0,0,0,0,0.0,0.0,0.0,
0,0,0,0,0,0.0,0.0,0.0,
0,0,0,0,0,0.0,0.0,0.0,
0,0,0,0,0,0.0,0.0,0.0,
0,0,0,0,0,0.0,0.0,0.0,
0,0,0,0,0,0.0,0.0,0.0,
0,0,0,0,0,0.0,0.0,0.0,
0,0,0,0,0,0.0,0.0,0.0,
0,0,0,0,0,0.0,0.0,0.0,
0,0,0,0,0,0.0,0.0,0.0,
0,0,0,0,0,0.0,0.0,0.0,
0,0,0,0,0,0.0,0.0,0.0,
0,0,0,0,0,0.0,0.0,0.0,
0,0,0,0,0,0.0,0.0,0.0,
0,0,0,0,0,0.0,0.0,0.0,
0,0,0,0,0,0.0,0.0,0.0,
0,0,0,0,0,0.0,0.0,0.0,
0,0,0,0,0,0.0,0.0,0.0,
4095,4095,2758,2956,2589,3.61,-8.59,3.17,L
4095,4095,2469,2725,2379,5.41,-8.57,3.58,L
4095,4095,2559,2768,2418,4.43,-8.7,3.06,L
4095,4095,2640,2634,2537,3.33,-9.0,3.67,L
4095,4095,2651,2637,2559,3.1,-9.1,3.65,L
4095,4095,2654,2670,2601,3.38,-8.98,3.55,L
4095,4095,2741,2666,2597,3.44,-8.97,3.17,L
4095,4095,2551,2491,2459,3.36,-9.05,3.09,L
4095,4095,2851,2786,2718,3.16,-9.05,3.64,L
4095,4095,2943,2883,2767,3.6,-9.03,3.39,L
4095,4095,2992,2868,2798,3.15,-8.99,3.14,L
4095,4095,2991,2956,2800,3.06,-9.19,2.86,L
4095,4095,3008,3057,2832,3.37,-9.3,3.2,L
4095,4095,2998,3085,2855,3.73,-9.04,3.38,L
4095,4095,3010,3025,2858,3.28,-9.16,3.07,L
4095,4095,2998,3058,2897,3.18,-9.11,3.19,L
4095,4095,3010,3131,2975,3.37,-9.14,2.99,L
4095,4095,3036,3181,2994,3.13,-9.16,3.11,L
4095,4095,3059,3162,3043,3.13,-8.96,3.17,L
4095,4095,3088,3207,3066,3.11,-9.09,3.07,L
4095,4095,3055,3137,3133,3.27,-9.09,3.05,L
4095,4095,2743,2806,2843,3.34,-9.07,2.88,L
4095,4095,3025,3085,3133,3.11,-9.12,3.05,L
4095,4095,3084,3133,3136,3.17,-9.16,3.07,L
4095,4095,3097,3152,3173,3.13,-9.11,3.16,L
4095,4095,3103,3216,3088,3.18,-9.25,2.79,L
4095,4095,3153,3189,3152,3.04,-9.25,2.98,L
4095,4095,3159,3227,3214,3.21,-9.12,2.79,L
4095,4095,2849,2947,2881,3.18,-9.13,2.94,L
4095,4095,2943,2982,2902,3.05,-9.17,3.08,L
4095,4095,4095,4095,2463,0.65,9.01,6.2,M
4095,4095,4095,4095,1968,0.18,8.8,5.96,M
4095,4095,4095,4095,2267,0.55,8.86,5.31,M
4095,4095,4095,4095,2352,0.44,8.98,5.53,M
4095,4095,4095,4095,2486,0.84,8.86,5.21,M
4095,4095,4095,4095,2659,0.71,8.95,5.42,M
4095,4095,4095,4095,2801,0.83,9.05,5.53,M
4095,4095,4095,4095,2881,0.88,8.88,5.27,M
4095,4095,4095,4095,2885,1.03,9.02,5.3,M
4095,4095,4095,4095,2906,0.46,8.94,5.65,M
4095,4095,4095,4095,2543,0.45,9.08,5.63,M
4095,4095,4095,4095,2928,0.66,9.15,5.36,M
4095,4095,4095,4095,2992,0.61,9.15,5.18,M
4095,4095,4095,4095,3043,0.45,9.14,5.16,M
4095,4095,4095,4095,3173,0.89,8.79,5.78,M
4095,4095,4095,4095,3211,0.62,8.79,5.74,M
4095,4095,4095,4095,3088,0.93,8.56,5.81,M
4095,4095,4095,4095,3293,0.42,8.84,5.66,M
4095,4095,4095,4095,3339,0.39,8.75,5.88,M
4095,4095,4095,4095,3297,0.44,8.72,5.74,M
4095,4095,4095,4095,2989,0.48,8.93,5.82,M
4095,4095,4095,4095,3344,0.41,8.94,5.32,M
4095,4095,4095,4095,3312,0.48,8.9,5.42,M
4095,4095,4095,4095,3376,0.32,9.02,5.55,M
4095,4095,4095,4095,3708,0.84,8.58,6.47,M
4095,4095,4095,4095,2735,2.04,6.24,8.87,N
4095,4095,4095,3341,2631,1.1,9.85,4.96,N
4095,4095,4095,3281,2331,1.43,9.51,3.65,N
4095,4095,4095,3185,2317,0.59,9.61,3.82,N
4095,4095,4095,3104,2411,1.19,9.46,3.99,N
4095,4095,4095,3093,2435,0.9,9.45,4.43,N
4095,4095,4095,3169,2608,0.52,9.33,4.56,N
4095,4095,4095,3182,2720,0.59,9.17,4.68,N
4095,4095,4095,2847,2490,0.68,9.33,4.23,N
4095,4095,4095,3248,2811,0.85,9.36,4.08,N
4095,4095,4095,3247,2842,0.73,9.41,4.19,N
4095,4095,4095,3271,2927,0.99,9.47,4.13,N
4095,4095,4095,3284,2942,0.86,9.58,4.26,N
4095,4095,4095,3307,2960,0.64,9.32,4.27,N
4095,4095,4095,3323,3003,0.72,9.44,4.24,N
4095,4095,4095,3331,3054,0.6,9.35,4.27,N
4095,4095,4095,3344,3093,0.79,9.53,4.25,N
4095,4095,4095,3367,3112,0.58,9.46,4.16,N
4095,4095,4095,3372,3153,0.76,9.51,4.17,N
4095,4095,4095,3373,3216,0.91,9.43,4.26,N
4095,4095,4095,3382,3232,0.98,9.31,4.32,N
4095,4095,4095,3033,2902,0.98,9.31,4.3,N
4095,4095,4095,3409,3258,0.76,9.33,4.55,N
4095,4095,4095,3347,3155,1.23,9.36,4.59,N
4095,3950,2923,4095,4095,1.53,-8.1,6.55,O
4095,3035,2813,3401,3566,1.09,-8.07,6.56,O
4095,2993,2771,3229,3648,1.31,-8.31,6.34,O
4095,2839,2864,3274,4038,1.23,-8.51,6.32,O
4095,2799,2915,3323,4095,1.3,-8.45,5.99,O
4095,2859,2995,3376,4095,1.24,-8.45,6.24,O
4095,2890,3057,3408,4095,1.25,-8.47,6.22,O
4095,2904,3083,3405,4095,1.25,-8.45,6.11,O
4095,2896,3215,3423,4095,1.23,-8.41,6.23,O
4095,2919,3263,3451,4095,1.29,-8.45,6.14,O
4095,2886,3351,3472,4095,1.43,-8.47,6.05,O
4095,2953,3344,3452,4095,1.25,-8.44,6.19,O
4095,2957,3419,3499,4095,1.19,-8.49,6.05,O
4095,2960,3543,3527,4095,1.17,-8.57,6.21,O
4095,2788,3286,3326,4095,1.22,-8.47,6.05,O
4095,2993,3463,3616,4095,1.38,-8.55,6.05,O
4095,2992,3542,3615,4095,1.42,-8.48,5.95,O
4095,3010,3531,3680,4095,1.22,-8.47,6.08,O
4095,2998,3625,3675,4095,1.37,-8.55,6.04,O
4095,3024,3614,3715,4095,1.34,-8.56,5.85,O
4095,3053,3600,3731,4095,1.29,-8.52,5.96,O
4095,3037,3616,3761,4095,1.28,-8.62,5.98,O
4095,2901,3387,3603,4095,1.21,-8.54,6.04,O
4095,3141,3698,3875,4095,1.3,-8.53,5.9,O
4095,3139,3699,3856,4095,1.36,-8.55,5.95,O
4095,3702,4095,4095,4095,1.55,-8.4,5.58,O
4095,4095,4095,3728,3257,0.5,8.23,6.69,P
4095,4095,4095,4095,3030,0.57,8.22,6.79,P
4095,4095,3977,3371,2682,0.7,8.2,6.84,P
4095,4095,3678,3207,2513,0.6,7.92,7.12,P
4095,4095,4095,3543,2752,0.23,7.95,7.18,P
4095,4095,4095,3661,2794,0.43,7.9,7.38,P
4095,4095,4095,3655,2853,0.35,7.99,7.29,P
4095,4095,4095,3871,2922,0.46,7.73,7.29,P
4095,4095,4095,3938,2967,0.06,7.84,7.37,P
4095,4095,4095,3934,2928,0.32,7.92,7.28,P
4095,4095,4095,4068,2938,0.78,7.95,7.26,P
4095,4095,4095,4095,2939,0.69,7.92,7.24,P
4095,4095,4095,4095,2958,0.64,7.97,7.34,P
4095,4095,4095,4095,3008,0.7,7.95,7.25,P
4095,4095,4095,4095,2912,0.51,8.01,7.21,P
4095,4095,4095,4095,2977,0.83,8.05,7.13,P
4095,4095,3888,3967,2687,0.67,7.88,7.3,P
4095,4095,4095,4095,3055,0.61,8.07,7.32,P
4095,4095,4039,3922,2673,0.66,7.95,7.13,P
4095,4095,4095,4095,3071,0.44,7.99,7.41,P
4095,4095,4095,4095,2902,0.94,7.95,7.06,P
4095,4095,4095,4095,3027,0.81,7.92,7.29,P
4095,4095,4095,4095,3057,0.79,7.96,7.17,P
4095,4095,4095,4095,3086,0.86,7.89,7.18,P
4095,4095,4095,4095,3099,0.86,7.96,7.3,P
4095,4095,4095,4095,3099,0.53,7.67,7.49,P
4095,4095,4095,4095,3166,0.56,7.47,8.55,P
4095,4095,2222,2384,2773,2.11,6.5,8.57,Q
4095,4095,1777,1829,1658,1.27,6.17,9.03,Q
4095,4095,2003,2113,1936,1.28,6.24,8.98,Q
4095,4095,2073,2173,2027,1.47,6.45,8.78,Q
4095,4095,2112,2267,2103,1.7,6.57,8.77,Q
4095,4095,2193,2414,2161,1.59,6.3,9.06,Q
4095,4095,2047,2272,2007,1.09,6.21,9.03,Q
4095,4095,2323,2535,2262,1.42,6.26,9.12,Q
4095,4095,2367,2559,2317,1.19,6.19,9.05,Q
4095,4095,2320,2617,2352,1.26,6.08,9.17,Q
4095,4095,2366,2631,2399,1.18,6.12,9.21,Q
4095,4095,2362,2669,2459,1.6,6.04,9.1,Q
4095,4095,2391,2734,2514,1.59,6.24,9.17,Q
4095,4095,2448,2736,2559,1.45,6.27,9.09,Q
4095,4095,2453,2731,2624,1.28,5.98,9.17,Q
4095,4095,2464,2806,2651,1.53,5.95,9.08,Q
4095,4095,2256,2608,2480,1.88,6.17,8.85,Q
4095,4095,2511,2864,2719,1.24,6.1,9.16,Q
4095,4095,2303,2622,2526,1.67,6.33,8.84,Q
0,0,0,0,0,0.0,0.0,0.0,
0,0,0,0,0,0.0,0.0,0.0,
0,0,0,0,0,0.0,0.0,0.0,
0,0,0,0,0,0.0,0.0,0.0,
0,0,0,0,0,0.0,0.0,0.0,
0,0,0,0,0,0.0,0.0,0.0,
0,0,0,0,0,0.0,0.0,0.0,
0,0,0,0,0,0.0,0.0,0.0,
0,0,0,0,0,0.0,0.0,0.0,
0,0,0,0,0,0.0,0.0,0.0,
0,0,0,0,0,0.0,0.0,0.0,
0,0,0,0,0,0.0,0.0,0.0,
0,0,0,0,0,0.0,0.0,0.0,
0,0,0,0,0,0.0,0.0,0.0,
0,0,0,0,0,0.0,0.0,0.0,
0,0,0,0,0,0.0,0.0,0.0,
0,0,0,0,0,0.0,0.0,0.0,
0,0,0,0,0,0.0,0.0,0.0,
4095,2112,2672,2314,1778,-8.31,-1.62,6.34,S
4095,1936,2256,1947,1295,-8.37,-1.64,6.4,S
4095,2118,2403,2085,1366,-8.34,-0.82,6.25,S
4095,2001,2381,2004,1306,-8.66,-1.21,6.51,S
4095,2165,2592,2133,1498,-8.35,-1.02,6.41,S
4095,2032,2483,2033,1453,-8.28,-1.04,6.38,S
4095,2046,2599,2123,1519,-8.17,-1.23,6.33,S
4095,2149,2755,2257,1695,-8.3,-1.23,6.4,S
4095,2096,2646,2150,1648,-8.14,-1.41,6.53,S
4095,2256,2880,2390,1802,-8.2,-1.55,6.24,S
4095,2266,2899,2373,1859,-8.04,-1.62,6.3,S
4095,2263,2915,2385,1887,-8.15,-1.59,6.48,S
4095,2269,2903,2366,1923,-8.0,-1.57,6.58,S
4095,2273,3003,2411,1954,-7.8,-1.97,6.48,S
4095,2288,2990,2390,1975,-7.93,-1.73,6.8,S
4095,2293,3035,2409,1986,-8.02,-1.86,6.77,S
4095,2302,3051,2416,2000,-7.97,-1.89,6.54,S
4095,2320,3033,2464,2029,-8.06,-1.96,6.47,S
4095,2342,3040,2454,2054,-8.02,-1.79,6.35,S
4095,2355,3065,2457,2099,-8.01,-1.77,6.59,S
4095,2225,2896,2320,1982,-8.33,-2.01,6.43,S
4095,2384,3142,2493,2125,-8.12,-1.71,6.61,S
4095,2269,2917,2351,1975,-8.06,-1.78,6.55,S
4095,2426,3155,2555,2137,-8.04,-1.83,6.42,S
4095,2426,3209,2557,2128,-7.99,-1.85,6.37,S
4095,2453,3247,2559,2139,-8.06,-1.98,6.55,S
4095,2494,3611,2780,2490,-7.89,-2.51,6.58,S
4095,4095,2731,2768,2307,10.02,2.4,2.25,T
4095,4095,2842,2797,2591,9.83,2.29,1.96,T
4095,4095,2898,2771,2637,9.84,1.89,2.0,T
4095,4095,2918,2819,2672,9.77,1.69,2.23,T
4095,4095,2645,2559,2443,9.81,1.93,2.48,T
4095,4095,3006,2884,2715,9.65,2.09,2.27,T
4095,4095,2762,2711,2549,9.56,1.85,2.15,T
4095,4095,3060,2977,2750,9.62,1.75,2.31,T
4095,4095,3085,2971,2795,9.67,1.71,2.46,T
4095,4095,3071,3011,2832,9.99,1.96,2.4,T
4095,4095,3102,3038,2843,9.69,1.84,2.64,T
4095,4095,3103,3024,2865,9.66,1.83,2.59,T
4095,4095,3132,3022,2869,9.86,1.78,2.43,T
4095,4095,3146,3007,2915,9.94,1.85,2.55,T
4095,4095,3104,3040,2930,9.62,1.62,2.68,T
4095,4095,2832,2817,2672,9.68,1.75,2.79,T
4095,4095,3143,3047,2983,9.66,1.81,2.65,T
4095,4095,3152,3024,2978,9.86,1.69,2.67,T
4095,4095,3187,3054,3005,9.67,1.72,2.95,T
4095,4095,3193,3123,3051,9.67,1.68,2.83,T
4095,4095,2909,2924,2800,9.69,1.53,2.6,T
4095,4095,3114,3133,2965,9.88,1.68,2.83,T
4095,4095,3567,3470,3347,9.4,1.92,3.08,T
4095,4095,4095,2639,2255,4.19,-8.98,2.3,U
4095,4095,4095,2416,2095,3.47,-9.04,2.64,U
4095,4095,4095,2512,2241,3.51,-9.57,2.48,U
4095,4095,4095,2406,2127,3.32,-8.9,2.71,U
4095,4095,4095,2657,2384,3.88,-9.05,2.81,U
4095,4095,4095,2663,2483,4.1,-8.85,2.49,U
4095,4095,4095,2721,2513,3.74,-8.98,2.81,U
4095,4095,4095,2779,2559,3.83,-8.86,2.5,U
4095,4095,4095,2797,2607,3.71,-9.0,2.55,U
4095,4095,4095,2811,2637,3.99,-8.86,2.82,U
4095,4095,4095,2537,2339,3.62,-9.06,2.64,U
4095,4095,4095,2559,2395,3.6,-8.95,2.6,U
4095,4095,4095,2885,2721,3.64,-9.03,2.46,U
4095,4095,4095,2899,2693,4.03,-8.94,2.61,U
4095,4095,4095,2887,2727,3.78,-8.95,2.6,U
4095,4095,4095,2559,2467,3.94,-8.83,2.63,U
4095,4095,4095,2624,2496,3.67,-8.96,2.55,U
4095,4095,4095,2637,2541,3.73,-9.05,2.55,U
4095,4095,4095,2641,2559,3.62,-8.96,2.56,U
4095,4095,4095,3010,2875,3.93,-8.94,2.66,U
4095,4095,4095,3009,2891,3.86,-8.93,2.73,U
4095,4095,4095,2993,2896,3.87,-8.83,2.83,U
4095,4095,4095,3182,3135,5.96,-8.04,2.58,U
4095,4095,4095,1664,1324,0.51,-8.39,6.2,V
4095,4095,4095,1648,1584,0.53,-8.43,6.7,V
4095,4095,4095,1822,1698,0.36,-8.38,6.9,V
4095,4095,4095,1956,1777,0.63,-8.15,6.48,V
4095,4095,4095,2082,1836,0.39,-8.24,6.67,V
4095,4095,4095,2129,1862,0.29,-8.32,6.65,V
4095,4095,4095,1689,2526,1.55,-9.37,5.25,V
4095,4095,4095,1904,2530,1.2,-8.78,5.16,V
4095,4095,4095,2099,2672,1.04,-9.16,5.11,V
4095,4095,4095,2175,2698,0.69,-8.99,5.38,V
4095,4095,4095,2310,2759,1.31,-9.05,5.09,V
4095,4095,4095,2385,2734,1.3,-9.03,4.89,V
4095,4095,4095,2651,2859,1.38,-8.46,5.35,V
0,0,0,0,0,0.0,0.0,0.0,
0,0,0,0,0,0.0,0.0,0.0,
0,0,0,0,0,0.0,0.0,0.0,
0,0,0,0,0,0.0,0.0,0.0,
0,0,0,0,0,0.0,0.0,0.0,
0,0,0,0,0,0.0,0.0,0.0,
0,0,0,0,0,0.0,0.0,0.0,
0,0,0,0,0,0.0,0.0,0.0,
0,0,0,0,0,0.0,0.0,0.0,
0,0,0,0,0,0.0,0.0,0.0,
0,0,0,0,0,0.0,0.0,0.0,
0,0,0,0,0,0.0,0.0,0.0,
0,0,0,0,0,0.0,0.0,0.0,
0,0,0,0,0,0.0,0.0,0.0,
0,0,0,0,0,0.0,0.0,0.0,
0,0,0,0,0,0.0,0.0,0.0,
0,0,0,0,0,0.0,0.0,0.0,
0,0,0,0,0,0.0,0.0,0.0,
0,0,0,0,0,0.0,0.0,0.0,
0,0,0,0,0,0.0,0.0,0.0,
4095,4095,4095,4095,1613,0.33,-8.08,6.81,W
4095,4095,4095,4095,1747,0.33,-7.94,6.47,W
4095,4095,4095,4095,1874,0.61,-8.33,6.56,W
4095,4095,4095,4095,1962,0.4,-8.09,6.5,W
4095,4095,4095,4095,2175,0.91,-8.32,6.58,W
4095,4095,4095,4095,2251,0.79,-8.39,6.39,W
4095,4095,4095,4095,2075,0.66,-8.27,6.59,W
4095,4095,4095,4095,2476,0.42,-8.2,6.52,W
4095,4095,4095,4095,2464,0.87,-8.34,6.59,W
4095,4095,4095,4095,2521,0.8,-8.24,6.74,W
4095,4095,4095,4095,2683,0.58,-8.24,6.82,W
4095,4095,4095,4095,2719,0.63,-8.17,6.84,W
4095,4095,4095,4095,2757,0.9,-8.27,6.63,W
4095,4095,4095,4095,2448,1.04,-8.34,6.44,W
4095,4095,4095,4095,2685,0.43,-8.33,6.73,W
4095,4095,4095,4095,2469,0.76,-8.23,6.56,W
4095,4095,4095,4095,2923,0.49,-8.31,6.76,W
4095,4095,4095,4095,2911,0.72,-8.43,6.5,W
4095,4095,4095,4095,3062,0.74,-8.39,6.62,W
4095,4095,4095,4095,3121,0.91,-8.19,6.52,W
4095,4095,4095,4095,2871,0.83,-8.23,6.58,W
4095,4095,4095,4095,3283,1.32,-8.2,6.3,W
3044,4095,4095,2527,2236,2.39,-8.64,6.06,X
1994,4095,3195,1975,1913,2.44,-7.91,7.16,X
1779,4095,2919,1917,1845,2.72,-7.23,7.57,X
1881,4095,3013,1974,1865,2.92,-7.29,7.38,X
2001,4095,3022,2046,1926,2.6,-7.38,7.38,X
1958,4095,2758,1952,1810,2.99,-7.55,7.14,X
2164,4095,2922,2107,1994,2.41,-7.61,7.2,X
2201,4095,2973,2139,2001,2.46,-7.62,7.15,X
2096,4095,2823,2037,1910,2.75,-7.49,7.02,X
2308,4095,3021,2207,2086,3.43,-7.31,7.06,X
2178,4095,2845,2109,1926,2.8,-6.95,7.59,X
2214,4095,2911,2159,2000,1.9,-7.48,7.81,X
2177,4095,2931,2176,2007,3.18,-7.44,6.88,X
2335,4095,2972,2166,1991,3.41,-7.53,6.64,X
2499,4095,3277,2320,2119,3.16,-7.73,6.58,X
2559,4095,3282,2311,2150,2.93,-7.83,6.54,X
2590,4095,3355,2327,2187,2.9,-7.89,6.37,X
2671,4095,3331,2357,2192,3.01,-7.84,6.44,X
2644,4095,3374,2383,2224,2.67,-7.98,6.53,X
4095,4095,4095,4095,3932,2.14,-7.28,7.31,X
4095,4095,3725,3231,3618,1.83,-8.77,5.83,X
2138,4095,2353,1999,1767,2.26,-8.96,5.25,X
2245,4095,2436,1977,1808,1.85,-8.71,5.64,X
2377,4095,2431,2102,1981,2.06,-8.64,5.42,X
2601,4095,2499,2192,2033,2.16,-8.74,5.31,X
2817,4095,2512,2305,2095,2.04,-8.69,5.41,X
2736,4095,2416,2191,1999,2.35,-8.6,5.36,X
3120,4095,2617,2347,2176,2.13,-8.62,5.47,X
3107,4095,2637,2368,2239,2.03,-8.55,5.54,X
3141,4095,2630,2386,2283,1.99,-8.61,5.62,X
4095,4095,3515,3981,3175,1.93,-8.17,5.96,X
4095,1935,1931,3008,4095,2.02,-8.21,0.74,Y
4095,1942,2033,3315,4095,1.53,-9.74,1.07,Y
4095,1952,2087,3387,4095,2.32,-9.68,1.35,Y
4095,1936,2163,3387,4095,2.25,-9.52,2.81,Y
4095,1949,2223,3373,4095,2.17,-9.43,2.74,Y
4095,1999,2274,3261,4095,2.05,-9.55,2.71,Y
4095,2027,2362,3414,4095,2.11,-9.44,2.59,Y
4095,1885,2252,3217,4095,2.26,-9.41,2.64,Y
4095,2087,2481,3612,4095,2.31,-9.36,2.66,Y
4095,2066,2622,3519,4095,2.38,-9.44,2.92,Y
4095,1903,2432,3088,4095,2.32,-9.22,3.04,Y
4095,2084,2749,3493,4095,2.17,-9.53,3.11,Y
4095,2068,2747,3406,4095,2.39,-9.24,3.38,Y
4095,2118,2817,3479,4095,2.41,-9.39,3.21,Y
4095,2154,2814,3518,4095,2.37,-9.47,2.75,Y
4095,2145,2855,3535,4095,2.21,-9.46,2.66,Y
4095,2157,2896,3509,4095,2.19,-9.4,2.69,Y
4095,2162,2885,3550,4095,1.95,-9.43,2.74,Y
4095,2186,2882,3571,4095,2.22,-9.51,2.43,Y
4095,2208,2910,3723,4095,1.99,-9.55,2.78,Y
4095,2209,2918,3665,4095,2.04,-9.49,2.71,Y
4095,2217,2977,3646,4095,2.09,-9.3,2.64,Y
4095,4095,2233,2800,2483,0.83,-8.99,4.38,Z
4095,4095,2253,2665,2096,1.2,-9.58,3.93,Z
4095,4095,2111,2734,2092,0.86,-9.38,3.7,Z
4095,4095,2149,2755,2129,1.66,-9.61,3.35,Z
4095,4095,2310,2810,2188,1.59,-9.32,3.48,Z
4095,4095,2467,2850,2405,1.6,-9.55,3.39,Z
4095,4095,2533,2873,2493,1.47,-9.37,3.63,Z
4095,4095,2623,2895,2525,1.41,-9.45,3.39,Z
4095,4095,2667,2965,2533,1.32,-9.47,3.54,Z
4095,4095,2703,2985,2586,1.1,-9.43,3.88,Z
4095,4095,2682,2992,2624,1.61,-9.42,3.45,Z
4095,4095,2704,3020,2615,1.53,-9.51,3.33,Z
4095,4095,2774,3095,2643,1.9,-9.42,3.01,Z
4095,4095,2765,3119,2669,1.79,-9.51,3.11,Z
4095,4095,2699,3081,2594,1.41,-9.48,3.32,Z
4095,4095,2811,3199,2660,1.36,-9.45,3.42,Z
4095,4095,2815,3197,2667,1.36,-9.53,3.15,Z
4095,4095,2817,3279,2690,1.67,-9.41,3.0,Z
4095,4095,2803,3300,2738,1.54,-9.45,3.1,Z
4095,4095,2821,3162,2643,1.46,-9.41,3.21,Z
4095,4095,2855,3250,2771,1.31,-9.45,3.57,Z
4095,4095,2592,2961,2519,1.67,-9.56,3.31,Z
4095,4095,2889,3235,2773,1.72,-9.5,3.18,Z
4095,4095,2896,3277,2826,1.71,-9.45,3.29,Z
4095,4095,2933,3309,2814,2.04,-9.38,3.18,Z
4095,4095,2944,3284,2841,1.56,-9.51,3.38,Z
4095,4095,2965,3312,2834,1.59,-9.53,3.1,Z
4095,4095,2967,3398,2877,1.68,-9.39,3.3,Z
4095,4095,2713,3013,2627,1.58,-9.48,3.33,Z
4095,4095,2997,3306,2892,1.35,-9.46,3.32,Z
4095,4095,3007,3307,2896,1.63,-9.67,3.13,Z
4095,4095,3271,3425,2970,1.37,-9.22,3.66,Z
3313,4095,4095,2559,3483,-0.97,-9.04,5.78,K
2173,4095,4095,2018,2448,0.7,-8.31,5.23,K
2606,4095,4095,2193,2656,-0.19,-8.73,6.06,K
2854,4095,4095,2349,2703,0.17,-8.74,5.7,K
3066,4095,4095,2401,2800,0.47,-8.5,5.54,K
3231,4095,4095,2419,2803,0.34,-8.67,6.11,K
3421,4095,4095,2458,2822,0.13,-8.66,6.06,U
4095,4095,4095,1648,1747,5.94,-6.33,7.42,U
4095,4095,4095,1925,1994,5.79,-6.22,6.6,U
4095,4095,4095,2090,2165,5.88,-6.23,6.5,U
4095,4095,4095,2159,2357,5.81,-6.25,6.2,U
4095,4095,4095,2268,2384,6.37,-6.26,5.97,U
4095,4095,4095,2226,2518,6.22,-6.06,5.88,U
4095,4095,4095,2279,2496,6.21,-6.2,5.97,U
4095,4095,4095,2306,2592,6.4,-6.35,5.81,U
4095,4095,4095,2385,2624,6.56,-6.23,5.72,U
4095,4095,4095,2473,2674,6.37,-6.37,5.58,U
4095,4095,4095,2510,2692,6.26,-6.47,5.55,U
4095,4095,4095,2553,2679,6.65,-6.31,5.35,U
4095,4095,4095,2559,2677,6.11,-6.47,5.48,U
4095,4095,4095,2603,2678,6.47,-6.59,5.33,U
4095,4095,4095,2602,2707,5.87,-6.65,5.49,U
4095,4095,4095,2546,2726,6.27,-6.47,5.43,U
4095,2395,4095,1875,1391,9.65,1.46,5.59,R
4095,2387,4095,2038,1804,8.84,1.4,4.87,R
4095,2544,4095,2129,1920,8.95,1.29,4.74,R
4095,2622,4095,2178,2039,9.42,1.74,4.51,R
4095,2581,4095,2235,2096,9.0,1.74,4.16,R
4095,2536,4095,2142,2149,9.32,1.64,4.54,R
4095,4095,4095,3049,3344,8.63,1.87,4.66,R
3984,2252,2726,2612,3564,0.81,-9.05,-0.96,A
3944,1979,2392,1869,1418,-0.38,-6.27,-0.36,A
4023,1981,2721,1985,1515,-0.6,-9.46,-1.04,A
4095,1859,2619,2048,1805,0.02,-9.48,-1.39,A
4095,1951,2821,2120,1764,-0.6,-9.92,-1.0,A
4095,1952,2866,2157,1859,-0.3,-9.78,-0.84,A
3907,2013,2940,2188,1945,-0.27,-9.89,-1.05,A
4067,2199,2805,2180,2027,-0.22,-9.67,-0.84,A
4014,2055,2687,2065,1896,-0.51,-9.35,-0.6,A
4095,2123,3045,2285,2057,-0.91,-9.61,-0.73,A
4002,2286,2992,2337,1973,-0.49,-9.19,-0.45,A
4090,2264,2886,2204,2175,0.36,-9.55,-0.86,A
4095,2181,3094,2230,2056,-0.28,-9.67,-1.09,A
4095,2171,3005,2331,2110,-0.28,-9.17,-0.89,A
4035,2320,3102,2214,2156,-0.1,-9.21,-1.12,A
4095,2313,3085,2375,2221,0.25,-9.34,-0.96,A
4095,2293,2933,2408,2164,-0.29,-9.71,-0.92,A
4095,2223,2897,2333,2189,-0.35,-9.53,-1.11,A
4095,2299,2868,2388,2195,-0.06,-10.03,-1.11,A
3961,2002,2899,2159,2034,-0.33,-9.81,-1.04,A
3960,2343,3194,2292,2126,-0.04,-9.81,-1.36,A
4095,2107,2885,2093,1935,-0.09,-9.15,-1.14,A
4030,2336,2993,2399,2316,-0.34,-10.0,-0.93,A
4095,2008,3053,2239,2129,-0.16,-9.94,-0.84,A
4073,2209,3122,2347,2205,-0.67,-9.21,-1.44,A
3921,2267,3355,2305,2237,-0.73,-9.02,-1.27,A
4095,2228,3452,2511,2220,-0.75,-9.7,-0.85,A
4095,2413,3148,2460,2169,-0.89,-9.6,-0.75,A
4030,2917,4032,3056,3327,-1.07,-10.3,-0.44,A
4084,4069,4095,3898,4081,-0.99,-9.42,3.41,B
2204,4095,4088,4095,3963,-2.48,-8.29,4.34,B
3752,3997,4095,4027,3970,1.0,-9.98,2.58,B
2564,4095,3898,4095,4021,1.74,-9.58,2.66,B
2907,4095,4095,3912,4095,1.66,-9.52,2.51,B
3748,4069,3947,3958,3967,0.74,-10.12,2.6,B
2841,4095,3997,4095,4028,1.28,-10.25,2.93,B
2807,4095,4095,4095,4054,1.66,-10.13,2.67,B
2914,3940,4052,4095,4095,1.57,-9.99,3.49,B
4095,4095,4095,4095,4082,1.6,-10.02,3.48,B
3424,4004,3924,3892,4038,1.69,-9.81,3.59,B
2896,4095,4095,3904,4095,1.75,-9.13,3.81,B
2629,4095,3935,4081,3974,1.19,-8.94,3.6,B
2907,4095,3988,3983,4095,2.03,-9.16,3.57,B
3022,3958,4095,4089,4095,1.84,-9.35,3.55,B
3225,4095,4066,4095,4085,1.67,-8.81,3.68,B
3130,3939,3947,4095,4095,1.71,-9.21,3.84,B
3218,3915,4060,3964,4095,1.66,-9.21,3.84,B
3254,4018,3936,3958,4095,1.63,-8.75,3.98,B
3130,3892,3918,3956,3993,1.68,-9.05,3.93,B
3281,3927,4095,4095,4007,1.69,-8.64,4.01,B
3208,4072,4056,4095,3971,1.71,-9.41,3.95,B
3102,4027,4095,4095,4095,1.69,-8.86,3.86,B
3053,3986,3974,3941,4007,1.68,-9.4,3.9,B
3269,4056,3979,4095,4095,1.71,-8.9,3.87,B
3074,4095,4072,3931,4095,1.61,-9.1,3.76,B
3166,4095,3930,4095,3985,1.7,-9.02,3.92,B
3262,3979,4077,4095,4042,1.66,-8.98,3.72,B
4095,3982,4042,3838,2869,0.12,-9.38,4.05,D
4095,4095,4086,3083,2587,-0.92,-9.81,4.41,D
4095,4095,3126,2390,2119,-0.45,-8.85,4.52,D
4050,3986,3231,2502,2297,-0.4,-9.07,4.45,D
4095,3947,3156,2398,2212,-0.41,-9.08,4.24,D
3902,3909,3159,2519,2316,-0.09,-9.48,4.1,D
4095,4095,3222,2701,2407,-0.87,-9.37,3.33,D
4095,4054,3118,2660,2291,-0.3,-8.98,3.36,D
3983,4095,3093,2640,2354,-0.91,-9.73,3.52,D
4095,4095,3126,2784,2361,-0.62,-9.55,3.27,D
4033,4025,3165,2639,2262,-0.67,-9.16,3.15,D
4095,3943,3141,2611,2288,-0.57,-9.14,3.32,D
4038,4095,3209,2826,2322,-0.81,-9.8,3.44,D
4046,4095,3336,2876,2306,-0.36,-9.5,3.47,D
3937,4095,3109,2913,2347,-0.84,-9.47,3.41,D
4075,4066,2881,2442,2317,-0.78,-9.24,3.26,D
4061,3912,3243,2769,2393,-1.15,-9.77,3.39,D
3900,4095,3392,2778,2498,-0.46,-9.63,2.98,D
4095,4095,3379,2996,2433,-0.89,-9.52,3.01,D
4095,4095,3179,2785,2491,-0.64,-9.41,3.01,D
4041,4095,3331,2819,2474,-0.74,-9.3,3.38,D
3951,4095,3253,2860,2674,-0.52,-9.25,3.06,D
1370,3411,2991,2335,2107,0.13,-9.37,3.52,E
1235,2475,2526,2039,1876,0.34,-9.18,3.59,E
1307,2546,2818,2091,1822,0.31,-9.31,3.99,E
1417,2510,2742,2300,1981,0.11,-9.52,3.93,E
1379,2379,2890,2212,1798,0.34,-8.91,3.5,E
1504,2426,2742,2362,1879,-0.52,-9.68,3.93,E
1553,2356,2961,2406,1969,-0.2,-9.38,3.94,E
1578,2572,2785,2254,2016,-0.13,-9.07,3.77,E
1603,2408,3062,2355,1997,0.15,-9.71,3.55,E
1722,2379,3038,2424,1888,-0.19,-9.48,3.78,E
1724,2412,3102,2359,1938,-0.18,-9.59,3.74,E
1688,2355,3144,2410,2011,0.1,-9.43,3.66,E
1800,2425,3301,2358,2034,-0.33,-9.86,3.56,E
1800,2540,3303,2434,1942,-0.36,-9.51,3.58,E
1773,2428,2996,2319,2011,-0.05,-9.16,3.46,E
1788,2556,3366,2360,2022,0.24,-9.35,3.86,E
1829,2339,3097,2458,2036,-0.25,-9.85,3.74,E
1893,2601,3260,2412,1968,0.05,-9.23,3.66,E
1981,2527,3324,2553,2001,-0.26,-9.47,3.64,E
1897,2389,3259,2436,1995,0.1,-9.01,3.6,E
2001,2563,3324,2451,2111,0.07,-9.92,3.61,E
1937,2568,3570,2491,1979,0.06,-9.85,3.85,E
1887,2475,3594,2613,2001,-0.19,-9.9,3.59,E
2062,2465,3385,2511,1978,-0.03,-9.65,3.67,E
2165,2417,3583,2579,2043,-0.01,-9.05,3.58,E
4095,2968,4065,4095,4072,-0.94,-9.15,5.31,F
4007,3521,4095,4012,3961,-0.2,-8.62,5.0,F
4095,3281,3898,3960,3955,-0.6,-9.08,4.97,F
4095,3158,4023,4095,3933,0.08,-8.51,4.79,F
4021,3385,3935,4095,4006,-0.73,-9.02,5.17,F
4049,3640,4095,3937,4095,-0.53,-8.72,5.52,F
3980,3233,4082,4095,4003,-0.08,-8.6,5.21,F
3998,3994,4082,4002,4095,-0.17,-8.94,4.86,F
3891,4095,3927,3996,4095,-0.18,-8.8,5.04,F
3906,3886,3966,4095,4095,-0.12,-8.78,4.89,F
3928,3237,3902,3898,4095,1.54,-8.74,6.08,F
4012,3553,4095,4091,3904,1.56,-8.22,5.68,F
4095,3642,4095,4095,4095,1.73,-8.49,5.78,F
4095,3524,4046,3958,4095,1.37,-8.69,5.95,F
4018,3683,4095,4095,4095,1.66,-8.14,5.62,F
4095,3888,3941,3987,4095,1.55,-8.73,6.05,F
4095,4095,2369,2002,2193,-1.08,-8.66,6.73,G
3976,4095,1964,1900,1798,-1.81,-7.8,6.82,G
4062,4072,2131,1912,1922,-1.84,-7.59,7.4,G
3995,4095,1991,2094,1866,-1.37,-7.6,7.53,G
4095,3960,2041,2083,1962,-1.33,-7.36,7.67,G
4095,3996,2039,1851,1715,-1.16,-8.07,7.32,G
4095,4095,2247,2293,2132,-1.11,-8.09,7.16,G
3912,4095,2291,2161,2072,-1.13,-7.82,7.19,G
3980,3993,2396,2186,2086,-0.72,-8.59,6.78,G
4015,4095,2462,2262,2119,-0.7,-7.88,6.31,G
4035,4095,2387,2302,2220,-0.49,-7.77,6.68,G
4095,3984,2361,2397,2095,-0.9,-8.58,6.97,G
4055,4095,2156,2083,2074,-0.81,-7.96,6.64,G
4095,4095,2403,2452,2115,-0.87,-8.43,6.64,G
4095,4095,2621,2477,2280,-0.85,-8.23,6.58,G
4095,4095,2467,2322,2136,-0.82,-8.25,6.73,G
4095,4095,2673,2537,2241,-0.87,-8.42,6.84,G
4095,4095,2662,2378,2303,-0.82,-8.3,6.62,G
4095,4095,2706,2587,2230,-0.6,-8.22,6.84,G
3987,3952,2740,2597,2416,-0.55,-8.1,6.7,G
4095,4058,2697,2583,2283,-0.91,-7.79,6.36,G
4004,4033,2531,2511,2461,-0.89,-8.28,6.99,G
4034,4031,2606,2666,2519,-0.84,-8.29,6.8,G
3898,3943,2635,2609,2469,-0.81,-8.4,6.56,G
4095,3968,2512,2482,2210,-0.72,-7.87,6.39,G
3938,4095,2573,2563,2325,-0.76,-8.17,6.55,G
4095,3930,2472,2633,2197,-0.75,-8.49,6.78,G
4095,4095,2438,2427,2258,-0.66,-8.02,6.64,G
4026,4095,2815,2802,2472,-0.89,-8.23,6.35,G
4095,4023,2721,2621,2431,-0.6,-7.8,6.32,G
3974,3909,2639,2703,2605,-0.83,-7.52,6.17,G
3898,4095,4095,2961,2346,2.44,-4.04,9.05,H
4042,3929,4095,2820,2531,5.61,-2.96,9.46,H
4009,4095,4095,2549,2263,5.39,-2.94,9.33,H
3893,4095,4095,2923,2597,5.75,-2.87,9.34,H
3975,4018,4022,2591,2634,5.28,-2.87,9.03,H
4095,4095,4003,2991,2981,5.11,-3.08,9.39,H
4095,4095,4095,2696,2692,5.18,-2.82,9.52,H
3994,4095,4059,3159,2998,5.08,-3.04,9.76,H
4095,3904,4095,3251,3020,5.32,-2.98,8.98,H
4095,4095,4093,3308,3218,4.91,-2.95,9.19,H
3949,4095,4083,3303,3097,5.35,-3.04,9.46,H
3990,3971,4095,3207,3179,4.97,-2.85,9.44,H
3905,3930,3937,3159,2998,5.17,-3.05,9.01,H
3981,4095,4074,3361,3258,4.96,-3.16,9.3,H
4095,4095,4095,3177,3251,4.94,-3.06,9.52,H
3948,4083,4095,3441,3252,5.0,-3.24,8.98,H
4095,3937,4095,3376,3139,4.99,-3.04,8.86,H
3930,3992,4095,3471,3037,5.11,-3.03,9.4,H
3986,3912,4095,3313,3184,5.0,-3.27,9.27,H
4095,4079,4095,3307,3223,5.54,-3.04,9.02,H
4095,4095,4095,2990,2872,5.11,-3.64,9.55,H
4095,4095,3952,3461,3142,4.97,-4.66,8.59,H
3905,4045,4090,3728,3455,5.12,-4.52,8.18,H
4095,4092,4095,3480,3145,5.15,-4.52,7.78,H
4095,3993,4095,3528,3145,5.01,-5.07,8.45,H
4095,4095,3973,3503,3477,5.37,-4.85,7.98,H
4075,4049,4095,3548,3248,5.1,-4.65,7.92,H
4043,4095,4080,3699,3369,5.58,-4.68,7.45,H
4095,2275,2735,4095,3917,-1.03,-9.97,3.51,I
4095,1907,2767,3995,3993,-1.35,-9.16,4.03,I
3925,2031,2597,4052,4095,-1.85,-9.43,4.09,I
3972,1963,2281,3948,4095,-1.25,-9.25,3.22,I
3960,2100,2526,3471,3919,0.11,-8.81,3.32,I
4095,2115,2879,3614,3956,-0.54,-9.32,3.47,I
4095,2103,2894,3923,4095,-1.02,-9.15,3.62,I
3987,2284,2743,3898,3967,0.34,-9.06,2.99,I
3931,2346,2895,3770,4095,-0.85,-9.63,3.51,I
4095,2360,3025,3819,4095,-0.61,-9.62,3.3,I
4095,2353,2919,3915,4095,-0.84,-9.07,3.42,I
4095,2416,3054,4095,3962,-0.81,-9.17,3.62,I
4095,2209,3017,4095,4080,-0.73,-9.94,2.98,I
4095,2212,2746,3755,4095,-0.83,-9.27,3.58,I
3929,2468,3239,4095,4095,-0.31,-9.56,3.48,I
4081,2362,3243,4095,3928,-0.32,-9.87,3.14,I
4095,2356,3257,4095,3954,-0.32,-9.24,3.43,I
3959,2280,3086,4022,4059,-0.46,-9.86,3.86,I
4087,2353,3222,4095,3984,-0.78,-9.6,3.75,I
4095,2445,3263,3894,3925,-0.56,-9.56,3.24,I
3920,2484,3061,4004,4095,-0.34,-9.01,3.52,I
4095,2403,3322,4095,4036,-0.45,-9.36,3.37,I
3919,2289,3168,4095,3974,-0.93,-9.33,3.91,I
4066,1908,2632,2641,4095,3.83,-9.51,0.71,J
4095,2051,3035,3064,3899,3.07,-9.29,1.06,J
3970,2116,2926,3015,4058,2.4,-9.79,1.47,J
4070,2014,2953,3354,3981,2.78,-9.53,1.22,J
4008,1992,3129,3330,4095,3.22,-9.16,1.39,J
4095,2012,3095,3527,4063,2.71,-9.98,1.2,J
4032,2021,2877,3407,4095,2.76,-9.11,1.39,J
4095,1944,2877,3183,4035,2.77,-9.25,1.47,J
4095,2179,3165,3359,4050,2.78,-9.08,1.31,J
4095,2262,3250,3514,4095,3.04,-9.03,1.19,J
4095,2110,3036,3496,4075,2.99,-9.36,1.46,J
4095,2012,2889,3448,4095,2.66,-9.32,1.61,J
4095,2271,3267,3540,4095,3.22,-9.17,1.25,J
4095,2127,3077,3669,4095,2.96,-9.18,1.35,J
3947,2297,3158,3484,4095,2.99,-9.47,1.31,J
4095,2212,3101,3701,4095,2.96,-9.28,1.21,J
4095,2219,3056,3714,4095,3.02,-9.52,1.39,J
3997,2169,3275,3767,4036,2.82,-9.06,1.39,J
3925,2150,3156,3631,4095,3.06,-8.86,1.24,J
4095,2259,3219,3629,4061,3.04,-9.78,1.22,J
3903,2346,3243,3781,3937,2.94,-9.8,1.4,J
4038,2001,3065,3488,4095,3.15,-9.53,1.37,J
3962,2203,3244,3797,4060,3.05,-9.7,1.72,J
0,0,0,0,0,0.0,0.0,0.0,
0,0,0,0,0,0.0,0.0,0.0,
0,0,0,0,0,0.0,0.0,0.0,
0,0,0,0,0,0.0,0.0,0.0,
0,0,0,0,0,0.0,0.0,0.0,
0,0,0,0,0,0.0,0.0,0.0,
0,0,0,0,0,0.0,0.0,0.0,
0,0,0,0,0,0.0,0.0,0.0,
0,0,0,0,0,0.0,0.0,0.0,
0,0,0,0,0,0.0,0.0,0.0,
0,0,0,0,0,0.0,0.0,0.0,
0,0,0,0,0,0.0,0.0,0.0,
0,0,0,0,0,0.0,0.0,0.0,
0,0,0,0,0,0.0,0.0,0.0,
0,0,0,0,0,0.0,0.0,0.0,
0,0,0,0,0,0.0,0.0,0.0,
0,0,0,0,0,0.0,0.0,0.0,
0,0,0,0,0,0.0,0.0,0.0,
0,0,0,0,0,0.0,0.0,0.0,
0,0,0,0,0,0.0,0.0,0.0,
0,0,0,0,0,0.0,0.0,0.0,
0,0,0,0,0,0.0,0.0,0.0,
0,0,0,0,0,0.0,0.0,0.0,
0,0,0,0,0,0.0,0.0,0.0,
0,0,0,0,0,0.0,0.0,0.0,
0,0,0,0,0,0.0,0.0,0.0,
0,0,0,0,0,0.0,0.0,0.0,
0,0,0,0,0,0.0,0.0,0.0,
0,0,0,0,0,0.0,0.0,0.0,
0,0,0,0,0,0.0,0.0,0.0,
0,0,0,0,0,0.0,0.0,0.0,
0,0,0,0,0,0.0,0.0,0.0,
4095,3897,2693,3085,2496,3.49,-8.5,3.29,L
4095,4019,2432,2845,2457,5.38,-8.89,3.55,L
4095,3952,2483,2744,2516,4.47,-8.29,3.02,L
4095,4095,2646,2597,2538,3.39,-8.72,3.58,L
4095,4095,2724,2694,2441,2.97,-8.78,3.75,L
4095,4095,2588,2786,2657,3.48,-9.29,3.62,L
4095,3981,2716,2779,2504,3.27,-8.72,3.19,L
4095,3977,2547,2564,2355,3.4,-9.37,3.08,L
3952,3963,2807,2791,2586,3.23,-8.65,3.67,L
4095,3935,2830,2754,2850,3.62,-8.82,3.42,L
4095,4089,3128,2944,2756,3.26,-8.76,3.21,L
3936,3965,2855,2913,2735,2.99,-9.58,2.93,L
4095,4079,3092,2992,2957,3.49,-9.03,3.28,L
3896,4095,2854,2970,2835,3.6,-9.2,3.42,L
4095,4095,3110,2936,2874,3.36,-9.6,3.21,L
4022,3993,2986,2950,2763,3.27,-9.37,3.15,L
4095,3897,3039,3161,2918,3.24,-9.02,3.07,L
3909,3997,3073,3175,3128,3.2,-9.48,3.2,L
4002,4095,3079,3303,2992,3.02,-8.57,3.16,L
3974,4095,2947,3196,3116,3.09,-9.28,2.91,L
4095,4095,3051,3199,3127,3.16,-8.96,2.97,L
4095,4095,2753,2872,2945,3.23,-9.13,2.82,L
3915,4095,3004,2995,3236,2.95,-8.8,2.89,L
4095,4095,2974,3194,3081,3.12,-8.82,3.03,L
4095,3944,3209,3129,3256,3.06,-9.38,3.05,L
4095,4095,3201,3369,3169,3.18,-9.5,2.87,L
4095,4058,3305,3309,3309,3.1,-8.96,3.12,L
3922,3927,3147,3239,3228,3.15,-9.44,2.74,L
4095,4095,2914,2826,2803,3.23,-8.66,3.0,L
4095,4069,3020,2912,2938,3.07,-9.2,3.02,L
4095,4038,4067,4095,2571,0.7,9.24,6.22,M
4095,4095,3975,4033,1995,0.17,9.01,5.66,M
4095,4095,4095,4095,2259,0.51,8.75,5.38,M
4095,4026,4095,3894,2398,0.45,8.58,5.31,M
4095,4095,4095,3903,2527,0.78,8.73,5.39,M
3916,4095,4075,4095,2734,0.74,9.15,5.34,M
4095,3903,3958,4095,2884,0.83,8.97,5.71,M
4095,4095,4095,4076,2874,0.84,9.01,5.39,M
4003,4095,4095,3937,2937,1.0,9.16,5.06,M
3919,4089,4095,4027,2884,0.43,9.13,5.44,M
4055,4073,3912,4095,2489,0.49,8.97,5.43,M
4095,3965,4095,4095,3006,0.61,9.59,5.11,M
4095,4057,4021,4085,3089,0.57,9.11,5.28,M
4095,4007,4064,3967,3144,0.48,9.41,5.36,M
4085,4066,3966,4008,3077,0.9,8.6,5.61,M
4095,4095,3951,3955,3086,0.62,8.82,5.74,M
4016,4095,3892,3921,3012,0.94,8.23,5.98,M
3994,4095,4095,3897,3171,0.42,8.95,5.41,M
4095,4095,4095,4095,3260,0.38,8.87,6.02,M
4034,4095,4095,3919,3426,0.49,8.97,5.84,M
4037,4095,4095,4095,2953,0.47,8.89,5.6,M
4017,4095,4069,4055,3191,0.4,8.96,5.52,M
4095,4054,4095,4095,3263,0.5,8.8,5.28,M
4029,3989,4095,4095,3219,0.32,9.2,5.64,M
4061,4022,3919,4095,3671,0.87,8.45,6.71,M
3985,3984,4095,4095,2704,2.07,6.08,8.77,N
4095,3956,4095,3367,2728,1.08,9.57,4.94,N
3969,4006,4090,3206,2431,1.39,9.88,3.55,N
3991,4095,4095,3301,2338,0.59,10.0,3.79,N
4062,3914,3980,3183,2462,1.22,9.51,3.9,N
4095,4095,4042,3130,2474,0.89,9.41,4.41,N
3999,4081,4095,3134,2567,0.55,8.9,4.42,N
3944,4095,4036,3277,2607,0.6,8.93,4.8,N
4095,4060,4095,2984,2415,0.7,9.58,4.14,N
4095,4095,4087,3267,2852,0.9,9.42,3.95,N
4095,4095,4095,3220,2936,0.73,9.13,4.21,N
4025,3977,4095,3149,2964,1.04,9.64,4.03,N
3923,4095,4095,3280,2992,0.84,9.36,4.32,N
4001,4095,3938,3312,2884,0.62,9.63,4.38,N
4095,4021,4095,3329,3059,0.75,9.11,4.14,N
4095,4095,4095,3415,3095,0.61,9.69,4.29,N
3957,4073,4095,3237,2944,0.82,9.23,4.27,N
3911,4050,4079,3286,3178,0.53,9.47,4.06,N
4095,3907,4095,3365,3193,0.8,9.21,3.98,N
3952,4095,3993,3502,3074,0.93,9.67,4.33,N
4095,3993,3947,3333,3250,1.04,8.98,4.26,N
4095,4095,4095,3149,2915,1.01,9.17,4.45,N
4063,3897,4095,3405,3128,0.7,9.77,4.36,N
4071,4095,3916,3369,3249,1.25,9.8,4.69,N
4063,3758,2969,4086,3975,1.56,-7.91,6.34,O
3978,3062,2757,3363,3519,1.04,-8.38,6.51,O
4095,2986,2637,3200,3666,1.37,-8.13,6.07,O
3897,2840,2731,3277,4095,1.22,-8.3,6.36,O
4095,2758,2998,3179,4081,1.31,-8.86,6.17,O
4095,2733,2955,3276,3930,1.28,-8.44,6.32,O
4049,2962,2915,3509,4095,1.28,-8.15,6.21,O
4095,2876,3235,3456,4095,1.26,-8.68,6.4,O
4006,2769,3218,3473,4095,1.29,-8.12,6.2,O
3947,2911,3309,3361,4095,1.26,-8.13,5.95,O
4079,3004,3421,3319,4095,1.38,-8.79,6.3,O
4095,3085,3491,3422,4095,1.23,-8.3,6.24,O
4095,2839,3295,3417,3925,1.14,-8.79,6.25,O
4095,2914,3460,3467,4095,1.26,-8.96,6.01,O
3957,2782,3280,3271,4095,1.27,-8.71,6.13,O
4021,2977,3438,3722,4094,1.32,-8.93,5.96,O
4048,3129,3611,3490,4095,1.35,-8.37,5.86,O
4095,2903,3676,3665,4095,1.22,-8.81,6.13,O
4024,3053,3727,3682,4095,1.36,-8.82,6.26,O
4095,2986,3540,3761,4095,1.39,-8.4,5.85,O
4095,2992,3449,3768,4095,1.28,-8.93,5.78,O
4095,3171,3524,3753,4095,1.26,-8.83,6.13,O
4095,2865,3521,3686,3947,1.17,-8.35,5.72,O
3901,3027,3762,4016,4092,1.32,-8.27,6.0,O
3940,3286,3531,3917,4010,1.33,-8.83,5.84,O
4016,3688,4095,3989,4095,1.52,-8.46,5.49,O
4095,3952,3923,3737,3179,0.5,8.39,6.5,P
4002,4095,4095,4095,3019,0.54,7.88,6.79,P
4001,4047,3831,3469,2617,0.74,8.61,6.65,P
4095,4095,3769,3200,2536,0.6,7.7,7.41,P
4095,4020,4095,3505,2872,0.24,8.0,6.98,P
4095,4095,4095,3827,2727,0.4,7.54,7.53,P
4095,4095,4083,3652,2945,0.36,8.29,7.18,P
4053,4095,4095,3869,2903,0.45,7.98,7.13,P
3985,4095,4095,3897,3046,0.06,7.9,7.66,P
4053,3961,3953,4095,2951,0.32,7.57,7.66,P
3947,3901,3989,4095,2948,0.75,7.78,7.18,P
4095,3937,4095,4013,3069,0.68,7.84,7.41,P
4095,4095,4032,4095,2886,0.67,7.78,7.71,P
4045,4095,4095,4095,2977,0.66,7.62,6.95,P
4095,3974,4062,4044,2959,0.52,7.69,7.54,P
4061,4095,4040,4095,2885,0.89,8.29,7.38,P
4095,4095,3929,3786,2820,0.66,7.88,7.47,P
4086,3996,4095,4090,3184,0.63,8.0,7.15,P
3934,4056,4095,4022,2670,0.65,8.01,7.1,P
4095,4095,4095,4095,3124,0.39,8.01,7.56,P
3985,4095,3980,3919,2837,0.92,8.28,6.97,P
4022,4095,3891,3901,3170,0.8,7.97,7.12,P
3946,4095,4095,3971,3134,0.82,8.12,7.5,P
4095,4095,4044,4095,3177,0.79,8.05,7.27,P
4095,4095,4095,4095,3164,0.9,8.12,7.23,P
4095,4056,4095,3970,2990,0.5,7.29,7.64,P
3950,4095,4095,3956,3166,0.57,7.52,8.55,P
4030,4095,2171,2486,2766,2.05,6.24,8.34,Q
3972,4095,1810,1784,1595,1.28,6.46,8.69,Q
4095,4095,2010,2123,2030,1.3,6.1,9.34,Q
4000,4095,2007,2280,2019,1.44,6.36,8.7,Q
4095,4005,2217,2274,2193,1.68,6.31,9.18,Q
4050,3968,2301,2422,2152,1.57,6.48,8.71,Q
4095,3949,2004,2271,1925,1.09,6.07,8.85,Q
4041,3901,2383,2611,2325,1.37,6.17,9.22,Q
3973,3976,2357,2559,2370,1.24,5.99,9.49,Q
4095,4035,2373,2625,2421,1.17,5.88,8.82,Q
3976,4095,2367,2755,2393,1.23,6.37,9.49,Q
4043,4082,2337,2591,2371,1.6,6.31,9.12,Q
3903,4095,2441,2787,2477,1.54,6.15,9.15,Q
3947,4095,2486,2665,2530,1.49,6.46,9.26,Q
4003,4095,2553,2704,2649,1.34,5.88,8.98,Q
4095,3938,2429,2937,2733,1.47,6.03,9.39,Q
3943,4092,2169,2625,2414,1.81,6.37,8.93,Q
4088,4095,2501,2745,2783,1.28,6.39,9.03,Q
4078,3930,2417,2543,2413,1.74,6.4,8.84,Q
0,0,0,0,0,0.0,0.0,0.0,
0,0,0,0,0,0.0,0.0,0.0,
0,0,0,0,0,0.0,0.0,0.0,
0,0,0,0,0,0.0,0.0,0.0,
0,0,0,0,0,0.0,0.0,0.0,
0,0,0,0,0,0.0,0.0,0.0,
0,0,0,0,0,0.0,0.0,0.0,
0,0,0,0,0,0.0,0.0,0.0,
0,0,0,0,0,0.0,0.0,0.0,
0,0,0,0,0,0.0,0.0,0.0,
0,0,0,0,0,0.0,0.0,0.0,
0,0,0,0,0,0.0,0.0,0.0,
0,0,0,0,0,0.0,0.0,0.0,
0,0,0,0,0,0.0,0.0,0.0,
0,0,0,0,0,0.0,0.0,0.0,
0,0,0,0,0,0.0,0.0,0.0,
0,0,0,0,0,0.0,0.0,0.0,
0,0,0,0,0,0.0,0.0,0.0,
4095,2085,2746,2370,1795,-8.24,-1.67,6.2,S
3904,1858,2204,1939,1305,-8.16,-1.61,6.22,S
3962,2022,2308,2045,1398,-8.01,-0.8,6.43,S
3894,2074,2307,1917,1285,-8.6,-1.26,6.33,S
4082,2268,2618,2198,1503,-8.66,-1.06,6.4,S
4095,2095,2408,2118,1431,-8.18,-1.08,6.24,S
3977,2023,2553,2083,1539,-8.28,-1.27,6.56,S
4095,2167,2860,2205,1722,-8.25,-1.2,6.7,S
4095,2164,2746,2220,1617,-8.25,-1.4,6.78,S
4095,2205,2789,2432,1729,-7.84,-1.54,6.28,S
3972,2290,2778,2342,1826,-7.65,-1.56,6.58,S
4040,2283,2853,2357,1899,-7.95,-1.5,6.77,S
4095,2314,2789,2316,2008,-7.66,-1.61,6.64,S
4095,2199,3002,2397,1987,-7.71,-1.92,6.67,S
4004,2389,3126,2273,1913,-8.07,-1.69,7.01,S
3949,2294,2986,2417,1892,-8.08,-1.8,6.66,S
4006,2416,3089,2442,1979,-8.33,-1.87,6.55,S
4095,2254,2946,2364,2043,-8.23,-1.86,6.55,S
4095,2258,3044,2468,2032,-7.65,-1.86,6.43,S
4015,2386,3107,2335,2008,-8.21,-1.72,6.69,S
3985,2162,2862,2435,1888,-8.5,-1.97,6.41,S
4095,2273,3023,2462,2088,-8.14,-1.75,6.83,S
4069,2344,2964,2389,1944,-7.87,-1.78,6.33,S
4095,2315,3216,2635,2037,-7.69,-1.85,6.58,S
3956,2478,3180,2573,2189,-8.16,-1.87,6.28,S
4095,2357,3256,2583,2119,-7.7,-2.04,6.6,S
4095,2524,3481,2696,2387,-8.16,-2.52,6.38,S
4095,4095,2626,2653,2277,10.27,2.44,2.24,T
4051,4047,2870,2862,2576,9.84,2.37,1.97,T
3968,4095,2762,2876,2662,10.06,1.86,2.1,T
3992,4095,2851,2772,2572,9.45,1.69,2.22,T
4046,4095,2629,2676,2433,9.61,2.05,2.35,T
4095,4095,3113,2968,2659,9.37,2.12,2.27,T
3895,4095,2667,2832,2426,9.67,1.74,2.02,T
4095,4095,2961,2955,2752,9.28,1.72,2.31,T
4014,3903,3076,2829,2748,10.02,1.76,2.39,T
4085,4095,3112,3152,2828,10.38,2.0,2.33,T
4095,4095,3058,3160,2983,9.36,1.91,2.63,T
4015,3984,3162,3088,2945,9.35,1.84,2.69,T
4095,4095,3208,2977,3007,9.96,1.88,2.53,T
3963,4064,3107,2925,3005,9.68,1.84,2.67,T
4095,4095,3122,3095,2978,9.3,1.6,2.69,T
4095,4095,2930,2870,2753,9.5,1.65,2.89,T
4032,4095,3179,2989,2885,9.98,1.9,2.67,T
4095,4035,3022,2920,3032,9.39,1.74,2.69,T
3964,4095,3314,3196,2951,9.86,1.72,2.95,T
4095,4043,3134,3238,2906,9.89,1.73,3.0,T
4095,4095,2991,2880,2744,9.36,1.58,2.66,T
4011,4095,2996,3210,3003,10.23,1.73,2.72,T
3994,4095,3605,3578,3253,9.05,1.83,2.96,T
4095,4095,3968,2609,2259,4.32,-8.52,2.26,U
4095,4095,4095,2487,2169,3.41,-9.12,2.69,U
4095,3928,4095,2544,2324,3.51,-9.85,2.44,U
3934,3992,4086,2339,2108,3.3,-8.75,2.68,U
4095,4095,4003,2528,2438,3.8,-8.72,2.91,U
4011,4095,4095,2787,2419,4.14,-8.84,2.41,U
3961,4095,4095,2638,2622,3.73,-8.83,2.91,U
4030,3912,4095,2818,2498,4.04,-8.5,2.49,U
3929,4009,3955,2934,2478,3.9,-9.3,2.64,U
4068,4095,4095,2918,2676,3.96,-8.66,2.86,U
3999,4095,4059,2658,2380,3.64,-8.98,2.74,U
3938,4095,4095,2680,2505,3.47,-9.06,2.57,U
4095,4095,4095,2818,2596,3.52,-9.02,2.58,U
4095,4029,4095,2895,2685,3.88,-8.69,2.71,U
3993,4095,4095,2976,2629,3.61,-8.95,2.66,U
3974,4095,4095,2490,2454,4.05,-9.13,2.52,U
4095,4095,4095,2545,2389,3.61,-9.02,2.55,U
4095,4095,4028,2559,2489,3.67,-9.43,2.54,U
3955,3919,4095,2695,2505,3.5,-8.89,2.49,U
4053,4095,4095,3026,2762,3.93,-8.66,2.6,U
3908,4095,3909,3088,2896,3.69,-9.32,2.76,U
4095,4095,3977,2929,3006,3.76,-8.48,2.74,U
4095,3933,3983,3257,3161,5.71,-8.36,2.67,U
4095,4095,3941,1713,1315,0.52,-8.08,6.4,V
4089,4095,4095,1566,1629,0.54,-8.55,6.55,V
4095,4010,4095,1821,1766,0.35,-8.04,6.93,V
4067,4095,3978,1905,1798,0.59,-8.32,6.34,V
4095,3944,4095,2093,1762,0.4,-7.92,6.53,V
3956,3986,3941,2221,1917,0.31,-8.5,6.86,V
4078,4095,4095,1709,2484,1.58,-9.09,5.4,V
3907,3893,3980,1937,2464,1.18,-9.12,4.92,V
4075,4095,4095,2103,2673,1.07,-8.96,4.94,V
4025,4056,4095,2075,2569,0.67,-9.28,5.18,V
4095,3944,3972,2243,2817,1.35,-9.03,5.04,V
4053,4095,4064,2370,2646,1.31,-9.28,4.9,V
4095,4032,3981,2654,2841,1.34,-8.34,5.28,V
0,0,0,0,0,0.0,0.0,0.0,
0,0,0,0,0,0.0,0.0,0.0,
0,0,0,0,0,0.0,0.0,0.0,
0,0,0,0,0,0.0,0.0,0.0,
0,0,0,0,0,0.0,0.0,0.0,
0,0,0,0,0,0.0,0.0,0.0,
0,0,0,0,0,0.0,0.0,0.0,
0,0,0,0,0,0.0,0.0,0.0,
0,0,0,0,0,0.0,0.0,0.0,
0,0,0,0,0,0.0,0.0,0.0,
0,0,0,0,0,0.0,0.0,0.0,
0,0,0,0,0,0.0,0.0,0.0,
0,0,0,0,0,0.0,0.0,0.0,
0,0,0,0,0,0.0,0.0,0.0,
0,0,0,0,0,0.0,0.0,0.0,
0,0,0,0,0,0.0,0.0,0.0,
0,0,0,0,0,0.0,0.0,0.0,
0,0,0,0,0,0.0,0.0,0.0,
0,0,0,0,0,0.0,0.0,0.0,
0,0,0,0,0,0.0,0.0,0.0,
4077,4095,4026,4095,1588,0.35,-8.16,6.5,W
4095,4095,4030,3998,1805,0.31,-7.56,6.17,W
4095,4022,4095,3963,1936,0.56,-8.11,6.81,W
4095,3993,3943,3949,1882,0.37,-8.27,6.58,W
3895,4095,4039,4095,2102,0.89,-8.23,6.86,W
4095,4095,4095,4024,2207,0.79,-8.07,6.66,W
3914,3912,4092,4095,2018,0.69,-8.04,6.59,W
4074,3909,3959,4095,2414,0.44,-8.35,6.61,W
4095,3906,4095,4095,2443,0.9,-8.1,6.85,W
4095,4085,4095,4095,2467,0.79,-8.27,6.98,W
4095,3978,4075,4025,2617,0.57,-8.58,7.01,W
3957,4007,3902,4095,2714,0.56,-8.39,7.02,W
3910,4095,4095,4058,2755,0.93,-8.61,6.46,W
3943,4095,4095,3969,2472,1.04,-8.31,6.13,W
4095,4095,4095,4095,2738,0.39,-7.93,6.64,W
4095,4095,4088,4095,2427,0.76,-8.36,6.29,W
4095,4059,3898,4095,3059,0.48,-8.37,6.62,W
4095,4095,3959,4095,2794,0.73,-7.99,6.69,W
3959,3898,4095,4095,2940,0.71,-8.73,6.55,W
4092,4095,3939,4037,3068,0.89,-7.83,6.6,W
4095,4073,3983,4058,2865,0.84,-8.37,6.5,W
4095,4095,4095,3924,3214,1.28,-7.96,6.52,W
3119,3983,4095,2644,2310,2.55,-8.27,6.29,X
1968,4095,3345,1930,1851,2.52,-7.87,6.94,X
1824,4095,2853,1921,1880,2.85,-7.41,7.87,X
1825,4095,2939,2051,1951,2.87,-7.56,7.3,X
1921,4051,3144,2087,2007,2.69,-7.66,7.49,X
2045,4095,2662,1903,1728,3.04,-7.5,7.35,X
2119,4031,2952,2178,1983,2.38,-7.46,7.48,X
2149,4095,3015,2113,2008,2.38,-7.98,7.31,X
2180,4095,2909,1967,1947,2.66,-7.29,6.83,X
2371,4095,3072,2167,2057,3.29,-7.22,6.82,X
2204,4095,2984,2193,1882,2.88,-7.2,7.84,X
2211,4095,2786,2114,2008,1.91,-7.66,8.02,X
2246,3914,2856,2075,2032,3.16,-7.15,6.68,X
2426,4027,3084,2168,1934,3.38,-7.32,6.91,X
2520,4019,3350,2211,2175,3.06,-7.66,6.24,X
2632,4095,3243,2364,2061,2.92,-7.91,6.33,X
2675,4095,3218,2420,2289,2.93,-7.98,6.55,X
2539,3915,3404,2469,2193,3.12,-7.63,6.6,X
2730,4095,3426,2494,2294,2.77,-7.84,6.64,X
4017,4060,3996,4005,3983,2.21,-7.48,7.06,X
4095,4093,3903,3355,3546,1.91,-9.11,5.84,X
2044,4095,2354,1918,1778,2.23,-8.56,5.26,X
2318,4095,2505,1966,1863,1.92,-8.94,5.67,X
2317,4095,2548,2068,1898,2.01,-8.79,5.15,X
2724,4095,2490,2100,2038,2.11,-8.48,5.19,X
2705,3938,2423,2406,2005,1.94,-8.83,5.32,X
2845,4095,2321,2125,1906,2.24,-8.84,5.27,X
3161,4095,2715,2440,2174,2.04,-8.44,5.7,X
3201,4095,2625,2255,2292,2.01,-8.4,5.7,X
3183,4095,2542,2331,2179,2.09,-8.43,5.56,X
4040,4095,3659,4084,3281,2.0,-7.76,6.03,X
4033,1890,1842,2985,4088,1.96,-8.18,0.71,Y
3948,1939,2030,3423,4095,1.53,-9.64,1.08,Y
4095,1984,2147,3336,4095,2.34,-9.54,1.36,Y
4095,1907,2228,3237,4037,2.23,-9.95,2.71,Y
4095,2027,2278,3319,4095,2.11,-9.53,2.84,Y
4095,2044,2209,3168,3945,2.04,-9.93,2.85,Y
3898,1942,2353,3486,3991,2.08,-9.21,2.59,Y
4095,1874,2209,3173,3940,2.22,-9.64,2.66,Y
4095,2003,2424,3638,4083,2.22,-9.6,2.61,Y
3953,2023,2712,3547,4080,2.32,-9.36,2.88,Y
4095,1886,2445,3199,3940,2.3,-8.86,2.98,Y
4095,2033,2776,3664,4013,2.28,-9.59,3.27,Y
3992,2024,2673,3269,4095,2.33,-9.02,3.36,Y
3999,2194,2684,3367,3901,2.32,-9.08,3.35,Y
4095,2112,2694,3346,4087,2.42,-9.6,2.79,Y
3908,2066,2912,3505,4091,2.15,-9.21,2.68,Y
4095,2170,2774,3338,4095,2.29,-9.31,2.7,Y
4056,2132,2978,3529,4095,1.89,-9.06,2.8,Y
4095,2255,3001,3693,4001,2.28,-9.63,2.42,Y
4095,2245,2831,3619,4022,2.02,-9.28,2.95,Y
4095,2262,3037,3783,4095,2.08,-9.08,2.65,Y
4095,2133,2865,3815,4095,2.18,-9.62,2.63,Y
4095,4095,2144,2807,2479,0.86,-8.74,4.44,Z
4095,4095,2329,2681,2034,1.16,-9.94,3.87,Z
3901,4095,2101,2824,2147,0.9,-9.06,3.9,Z
4047,4046,2175,2871,2172,1.63,-9.54,3.3,Z
4029,4095,2222,2776,2213,1.54,-9.14,3.51,Z
4095,4095,2510,2887,2374,1.59,-9.57,3.53,Z
4095,4095,2568,2779,2471,1.5,-9.57,3.61,Z
4095,3965,2506,2826,2626,1.45,-9.59,3.23,Z
4094,4083,2701,3100,2645,1.28,-9.15,3.61,Z
4095,4095,2591,3017,2609,1.08,-9.08,3.77,Z
4095,4095,2721,3125,2676,1.56,-9.43,3.54,Z
4095,3945,2786,2901,2559,1.49,-9.11,3.5,Z
4095,3984,2778,3012,2702,1.86,-9.14,3.12,Z
4095,4095,2627,3041,2672,1.83,-9.48,3.25,Z
4095,3944,2784,3030,2638,1.41,-9.05,3.47,Z
4001,4095,2911,3239,2723,1.4,-9.89,3.41,Z
3981,4095,2842,3126,2647,1.32,-9.89,3.01,Z
3927,4089,2842,3197,2740,1.69,-9.85,3.08,Z
4095,4095,2788,3148,2693,1.5,-9.69,3.03,Z
3940,3955,2751,3095,2613,1.39,-9.72,3.14,Z
4004,4049,2852,3301,2765,1.31,-9.02,3.52,Z
4095,4095,2641,2911,2535,1.67,-9.54,3.22,Z
4095,4020,2888,3177,2794,1.8,-9.83,3.11,Z
4095,3964,2817,3333,2743,1.77,-9.3,3.38,Z
4095,4095,2991,3318,2904,2.02,-9.73,2.99,Z
3970,4095,2896,3271,2768,1.58,-9.42,3.5,Z
3916,4027,2958,3184,2814,1.6,-9.9,3.19,Z
3998,4055,3061,3526,3004,1.63,-9.48,3.38,Z
3910,4095,2601,3064,2518,1.58,-9.68,3.44,Z
4095,3900,3022,3342,2914,1.38,-9.28,3.29,Z
4095,4001,3116,3371,2794,1.6,-10.0,3.05,Z
3905,3955,3303,3518,3112,1.37,-9.65,3.63,Z
3391,4060,3980,2592,3589,-0.91,-9.48,5.72,K
2246,4017,4095,1977,2538,0.73,-8.25,5.32,K
2690,4021,4095,2279,2718,-0.22,-8.4,5.96,K
2957,4018,3925,2288,2731,0.16,-8.93,5.75,K
2966,3944,3997,2521,2668,0.46,-8.25,5.54,K
3249,3941,3905,2503,2701,0.36,-8.7,6.23,K
3281,4095,3898,2467,2899,0.14,-8.69,6.22,U
4078,4095,4095,1696,1801,5.68,-6.47,7.43,U
3976,4095,3903,1987,2073,5.58,-6.31,6.43,U
4095,3899,4095,2063,2111,5.75,-6.42,6.23,U
3919,4095,3952,2075,2443,5.72,-6.07,6.23,U
4095,4095,4065,2373,2401,6.28,-6.54,5.8,U
4095,4022,3890,2314,2463,6.3,-5.81,5.71,U
4066,4095,4095,2185,2478,6.15,-6.48,5.99,U
3896,4051,4095,2400,2571,6.4,-6.43,5.65,U
4095,4095,3905,2482,2637,6.83,-6.06,5.78,U
4025,3897,4095,2586,2710,6.17,-6.38,5.72,U
3927,4087,4068,2463,2704,6.48,-6.2,5.64,U
3937,4095,4095,2655,2799,6.89,-6.27,5.39,U
4095,4095,4095,2503,2688,6.05,-6.44,5.74,U
3974,3998,4095,2655,2705,6.69,-6.68,5.49,U
4011,3968,4083,2548,2587,5.96,-6.88,5.56,U
4095,4095,3914,2505,2599,6.18,-6.7,5.67,U
4095,2313,4095,1968,1356,9.36,1.5,5.68,R
3984,2351,4013,1975,1776,9.12,1.36,5.07,R
4095,2464,4095,2028,1991,9.12,1.3,4.65,R
3985,2616,4095,2253,1982,9.05,1.75,4.5,R
3942,2566,4095,2280,2189,9.04,1.8,4.01,R
4029,2490,4095,2168,2184,9.13,1.69,4.34,R
4095,3898,4067,2900,3368,8.83,1.88,4.84,R
4003,2312,2910,2639,3560,0.77,-9.73,-0.99,A
3974,1817,2493,1762,1296,-0.39,-6.39,-0.37,A
4095,2057,2768,2006,1584,-0.67,-9.2,-1.02,A
4095,1937,2741,2076,1648,0.03,-9.65,-1.43,A
4095,2034,2961,2115,1887,-0.64,-9.87,-1.01,A
3999,2034,2927,2063,1865,-0.31,-9.63,-0.82,A
3900,1994,2942,2070,1956,-0.25,-10.08,-1.01,A
3924,2148,3065,2262,1896,-0.21,-9.97,-0.91,A
3907,2103,2754,2159,1788,-0.57,-9.6,-0.61,A
4095,2225,2896,2284,1990,-0.95,-10.05,-0.79,A
4095,2296,2967,2280,2064,-0.53,-10.03,-0.43,A
4095,2183,2892,2296,2102,0.33,-9.48,-0.86,A
3942,2256,2838,2250,2023,-0.22,-9.8,-1.16,A
4095,2158,2985,2296,2004,-0.3,-9.58,-0.9,A
4065,2277,2915,2220,2045,-0.07,-9.43,-1.18,A
4095,2250,3080,2370,2024,0.2,-9.32,-0.91,A
3949,2186,3109,2332,2013,-0.32,-9.68,-0.89,A
4022,2243,2901,2364,2213,-0.38,-9.52,-1.14,A
4095,2237,2962,2314,2174,-0.07,-9.86,-1.1,A
4095,2027,2970,2241,1993,-0.34,-9.15,-1.04,A
4095,2332,3071,2306,2216,-0.06,-9.55,-1.31,A
4095,2065,2885,2197,1982,-0.05,-9.0,-1.05,A
3999,2202,3005,2435,2273,-0.32,-9.91,-1.01,A
4095,2040,3026,2159,2187,-0.23,-9.55,-0.79,A
4095,2272,3310,2355,2217,-0.71,-9.51,-1.37,A
4093,2357,3172,2426,2280,-0.71,-9.23,-1.22,A
4095,2355,3179,2533,2122,-0.78,-9.4,-0.85,A
3893,2196,3272,2502,2343,-0.95,-9.71,-0.71,A
4095,2934,3984,3060,3250,-1.03,-10.33,-0.38,A
4027,4051,4095,4095,4038,-0.91,-9.83,3.28,B
2229,3995,3928,3890,4018,-2.66,-7.72,4.49,B
3665,4095,3978,4095,3995,0.96,-9.48,2.35,B
2736,4095,3996,4095,4095,1.79,-9.11,2.47,B
3102,4095,4095,3898,4095,1.51,-9.36,2.52,B
3908,4095,4095,4095,4095,0.77,-9.61,2.62,B
3096,3908,3951,4095,3957,1.33,-10.08,2.95,B
2904,4018,4095,4095,4095,1.76,-9.66,2.59,B
2930,3915,4095,4095,4095,1.53,-9.41,3.52,B
4095,4095,4095,4095,3914,1.57,-9.89,3.46,B
3285,4019,4095,4095,3961,1.72,-9.02,3.69,B
2941,4095,3965,3955,4095,1.73,-9.44,3.7,B
2727,4051,3927,4095,4095,1.22,-9.09,3.58,B
2841,4036,3916,3996,4095,1.98,-9.55,3.47,B
2945,4090,4095,4066,4095,1.71,-9.11,3.87,B
3057,4095,4095,3941,4095,1.71,-9.51,3.91,B
3183,3892,4095,4095,4026,1.62,-8.82,3.96,B
3083,4042,4088,4095,4095,1.77,-9.37,3.88,B
3090,4095,4019,4095,4095,1.67,-8.67,3.63,B
3311,3915,4095,4054,3952,1.68,-9.51,3.88,B
3279,4095,3916,4095,4041,1.75,-9.07,3.64,B
3284,3921,4095,4095,4095,1.67,-8.94,3.92,B
3030,4095,4095,4095,4095,1.59,-9.02,3.99,B
3193,4095,3997,4095,4095,1.62,-9.28,3.63,B
3241,4095,3975,4095,4095,1.57,-8.97,3.76,B
3248,4013,4087,4095,4095,1.66,-9.47,3.71,B
3205,4095,4095,4095,4095,1.72,-9.22,3.82,B
3139,4095,4095,3892,3954,1.75,-8.92,3.96,B
3990,4001,3979,3592,2885,0.09,-9.55,3.85,D
4043,4095,3922,3009,2625,-0.98,-9.72,4.56,D
4095,3999,2858,2542,2161,-0.47,-8.92,4.33,D
4002,4080,3141,2508,2251,-0.38,-9.32,4.37,D
4095,3958,3079,2633,2349,-0.33,-9.79,4.31,D
4095,3947,2907,2448,2208,-0.12,-9.31,3.87,D
4095,4095,3199,2649,2380,-0.82,-9.02,3.44,D
4095,4095,3148,2541,2335,-0.27,-9.22,3.28,D
4038,3999,3205,2551,2394,-0.87,-9.77,3.67,D
4018,3980,3216,2624,2469,-0.58,-9.73,3.06,D
4095,4095,3123,2724,2459,-0.7,-9.38,2.97,D
4095,4095,3077,2709,2438,-0.54,-9.55,3.14,D
4095,3967,3242,2737,2411,-0.82,-9.98,3.52,D
4095,4095,3231,2704,2335,-0.4,-10.01,3.3,D
4095,4095,3314,2691,2470,-0.9,-9.52,3.38,D
4095,4095,2923,2583,2213,-0.79,-9.87,3.09,D
4095,3926,3322,2870,2460,-1.11,-9.53,3.41,D
3930,4045,3420,2816,2416,-0.41,-9.38,2.87,D
4095,3969,3151,2960,2552,-0.83,-9.3,3.07,D
4095,3928,3168,2744,2468,-0.62,-9.44,2.95,D
3990,3912,3243,2824,2677,-0.65,-9.04,3.41,D
3922,4009,3305,2817,2634,-0.53,-9.98,3.2,D
1329,3407,3026,2326,2109,0.12,-9.09,3.3,E
1228,2486,2693,2159,1806,0.37,-8.86,3.65,E
1321,2394,2597,2123,1890,0.31,-9.45,3.91,E
1486,2557,2941,2184,1891,0.13,-9.65,4.11,E
1459,2447,2853,2238,1812,0.36,-9.68,3.73,E
1512,2415,2903,2369,1960,-0.53,-8.92,3.93,E
1582,2452,3006,2222,1889,-0.21,-9.78,3.87,E
1581,2420,2911,2392,1838,-0.1,-9.33,3.84,E
1569,2425,3069,2261,1888,0.16,-9.36,3.62,E
1629,2491,3070,2385,2063,-0.23,-9.21,3.83,E
1706,2333,3188,2378,2078,-0.15,-9.49,3.8,E
1786,2406,3041,2375,2036,0.08,-9.2,3.74,E
1724,2418,3188,2359,1950,-0.32,-9.31,3.54,E
1821,2482,3258,2432,2085,-0.3,-9.68,3.73,E
1875,2438,3224,2292,1947,-0.07,-9.7,3.68,E
1878,2365,3434,2554,2012,0.23,-9.07,3.59,E
1860,2392,3019,2265,1963,-0.26,-9.78,3.93,E
1894,2389,3223,2495,2021,0.07,-9.2,3.54,E
1991,2457,3375,2410,2007,-0.24,-9.85,3.82,E
1838,2481,3390,2521,2054,0.13,-9.16,3.62,E
1888,2472,3269,2461,1984,0.05,-9.11,3.48,E
2092,2573,3561,2392,1959,0.08,-9.12,3.75,E
1908,2576,3335,2500,1981,-0.21,-9.34,3.62,E
2016,2599,3628,2511,2021,-0.07,-9.2,3.7,E
2137,2565,3404,2407,2055,-0.02,-9.93,3.5,E
4095,3100,4095,4095,4087,-1.02,-9.0,5.4,F
4095,3504,4095,4095,3979,-0.25,-9.23,4.85,F
4010,3297,3937,3990,4059,-0.6,-9.23,5.32,F
4095,3188,4095,3917,3980,0.06,-8.73,5.2,F
3930,3115,4095,4095,4095,-0.66,-9.12,5.2,F
4023,3864,4046,4095,3951,-0.55,-8.52,5.29,F
3934,3473,4095,4095,4095,-0.06,-8.81,5.25,F
3927,4095,4095,3944,4095,-0.16,-9.16,4.98,F
4095,4008,4095,4095,4095,-0.17,-9.5,4.89,F
4018,4095,4068,3952,3953,-0.13,-8.76,4.86,F
4076,3297,3936,4036,3901,1.54,-8.09,5.76,F
4095,3752,4095,3967,4095,1.58,-8.7,5.89,F
4005,3480,3976,4095,4027,1.64,-8.65,5.75,F
4095,3711,4044,4007,4095,1.35,-8.81,6.1,F
4095,3758,4010,4024,4014,1.75,-8.59,6.05,F
3926,3767,4095,3998,4095,1.54,-8.5,6.36,F
4095,4095,2262,2104,2109,-1.07,-8.67,6.65,G
4095,4095,2067,1907,1873,-1.89,-7.28,7.45,G
3975,4006,2145,2025,1914,-1.95,-7.65,7.38,G
4095,3915,2093,2045,1844,-1.32,-7.37,7.23,G
4095,3993,2199,2006,2003,-1.32,-7.81,7.84,G
4095,4095,1923,2010,1801,-1.12,-7.45,7.47,G
4095,4095,2212,2106,1977,-1.17,-7.49,7.15,G
4085,4095,2227,2133,2107,-1.12,-8.07,6.66,G
4034,3949,2381,2187,2259,-0.73,-8.35,6.57,G
4095,4063,2311,2369,2172,-0.69,-7.85,6.31,G
4095,3917,2478,2329,2197,-0.41,-8.24,6.76,G
4095,4095,2328,2325,2180,-0.87,-8.53,6.95,G
3951,4036,2144,2071,1951,-0.79,-8.45,6.36,G
4095,4035,2470,2313,2133,-0.85,-7.75,6.8,G
3926,4095,2591,2477,2222,-0.83,-8.55,6.67,G
3993,4095,2470,2325,2212,-0.89,-8.45,6.84,G
4095,3938,2470,2362,2244,-0.88,-7.93,6.71,G
4095,4095,2719,2510,2243,-0.82,-7.99,6.76,G
4095,4095,2661,2459,2422,-0.61,-8.61,6.18,G
3971,3986,2519,2534,2450,-0.53,-8.09,6.62,G
4095,4095,2714,2662,2464,-0.87,-8.42,6.55,G
3982,4047,2620,2719,2354,-0.86,-8.18,6.97,G
4086,3893,2685,2781,2443,-0.83,-7.94,6.87,G
4095,4095,2561,2684,2443,-0.82,-8.0,6.66,G
3892,4095,2372,2298,2218,-0.71,-8.38,6.34,G
4028,3957,2650,2607,2488,-0.77,-8.5,6.41,G
4004,3960,2361,2585,2186,-0.8,-8.32,6.88,G
3981,3954,2468,2575,2148,-0.61,-8.51,6.6,G
4095,4072,2684,2656,2408,-0.89,-8.12,6.23,G
3951,4095,2712,2757,2370,-0.51,-8.23,6.42,G
4095,4095,2613,2670,2482,-0.81,-7.7,6.18,G
4095,4095,3933,3215,2458,2.53,-4.3,9.39,H
4095,4095,4095,2868,2527,5.5,-2.83,9.34,H
3922,4095,4095,2528,2279,5.41,-2.85,8.96,H
4095,4095,4095,2984,2698,5.73,-2.66,9.5,H
4026,4095,3911,2787,2504,5.45,-3.03,8.94,H
4052,3914,4095,3085,2907,4.9,-2.87,9.75,H
3891,4095,4053,2824,2553,5.04,-3.05,9.01,H
4095,4095,4095,3279,2962,5.21,-2.96,9.2,H
4045,4095,4095,3183,3049,5.34,-3.07,9.24,H
4095,4095,4095,3003,2987,5.0,-2.97,9.61,H
4095,4095,3992,3101,3202,5.45,-3.01,8.91,H
4095,4038,4095,3170,2969,5.2,-2.82,8.88,H
4034,4095,4020,3427,3018,5.15,-3.0,9.61,H
4095,4095,4093,3185,3140,5.24,-3.08,9.15,H
4047,4095,4095,3434,3053,5.09,-3.0,9.24,H
4039,4095,4087,3313,3124,4.9,-3.14,9.06,H
4095,4095,4095,3401,3287,5.0,-2.97,8.86,H
3973,4057,4040,3458,3129,4.97,-2.84,9.46,H
4095,4091,4095,3492,3321,5.32,-3.08,9.69,H
4095,4065,4095,3240,3128,5.34,-3.3,8.98,H
3974,4095,4095,3021,2782,5.17,-3.6,9.33,H
4095,4095,4095,3429,3149,4.92,-4.58,9.2,H
3999,4095,4060,3494,3156,5.44,-4.78,8.58,H
4095,4068,4095,3631,3133,5.22,-4.58,8.15,H
4095,4095,4058,3747,3280,5.01,-5.23,8.6,H
4040,4095,4074,3649,3431,5.55,-4.77,8.18,H
3965,4041,4028,3655,3443,5.54,-4.75,7.99,H
4095,4043,4095,3643,3508,5.83,-4.47,7.76,H
3947,2201,2623,4095,3945,-1.02,-10.28,3.55,I
3898,1970,2648,3942,3948,-1.4,-8.71,3.83,I
4053,1925,2519,4031,3892,-1.94,-9.53,3.74,I
3981,2099,2206,4070,3909,-1.14,-9.8,3.43,I
4095,2141,2624,3651,3978,0.07,-8.71,3.31,I
4027,2112,2868,3513,4095,-0.49,-9.29,3.42,I
3990,2217,2772,3571,4095,-1.08,-9.35,3.7,I
3966,2329,2848,3794,4095,0.35,-9.57,3.11,I
4095,2288,2895,3849,4095,-0.88,-9.29,3.4,I
4095,2279,3009,3744,4095,-0.61,-9.31,3.38,I
4095,2357,3021,3961,4095,-0.81,-9.98,3.37,I
3956,2269,3042,3919,4091,-0.78,-9.17,3.55,I
4095,2238,3194,4040,4095,-0.71,-9.72,3.08,I
4095,2158,2982,3661,4095,-0.83,-9.85,3.57,I
4095,2468,3306,4095,4095,-0.3,-9.43,3.7,I
4094,2404,3240,3997,4044,-0.28,-9.88,3.03,I
4095,2395,3121,3916,4092,-0.28,-9.75,3.43,I
4095,2319,3328,3918,3910,-0.47,-9.06,3.79,I
4084,2489,3385,4042,4095,-0.74,-9.61,3.59,I
4076,2542,3223,4046,4095,-0.52,-9.88,3.02,I
4095,2456,3095,4095,3981,-0.29,-9.54,3.52,I
4095,2344,3338,4095,4095,-0.39,-9.62,3.43,I
3891,2359,3145,4049,3984,-0.99,-9.53,3.82,I
4095,1958,2749,2575,3910,3.8,-8.88,0.74,J
4095,1914,2899,2893,4095,3.16,-8.86,1.05,J
3978,1931,3079,3087,4049,2.4,-9.47,1.51,J
3897,2004,2921,3360,3987,2.75,-9.55,1.25,J
4095,2113,3096,3321,3941,3.06,-9.17,1.4,J
4095,2023,3130,3231,4095,2.74,-9.87,1.25,J
4054,2083,3017,3460,4049,2.83,-9.7,1.44,J
3897,2061,2815,3207,4063,2.75,-9.5,1.43,J
3976,2168,3176,3568,4095,2.81,-9.66,1.26,J
3917,2089,3014,3601,3901,3.13,-9.54,1.19,J
3921,2256,3076,3480,3926,2.76,-9.01,1.55,J
4095,1953,3074,3215,4035,2.74,-9.75,1.56,J
4065,2242,3173,3619,3919,3.15,-9.42,1.22,J
3921,2302,3048,3527,4095,2.89,-9.41,1.33,J
4095,2312,3160,3522,4027,3.01,-9.06,1.27,J
3958,2122,3204,3526,4095,2.96,-9.63,1.13,J
4095,2130,3272,3740,3902,3.0,-8.88,1.45,J
4095,2155,3187,3632,4081,2.89,-9.44,1.43,J
4095,2290,3281,3735,4095,3.13,-9.67,1.25,J
4095,2165,3459,3668,4095,2.87,-9.67,1.22,J
4095,2346,3141,3710,4028,3.1,-9.77,1.39,J
4095,2056,3076,3574,4079,2.98,-9.52,1.29,J
4095,2244,3145,3632,4095,3.06,-9.44,1.67,J
0,0,0,0,0,0.0,0.0,0.0,
0,0,0,0,0,0.0,0.0,0.0,
0,0,0,0,0,0.0,0.0,0.0,
0,0,0,0,0,0.0,0.0,0.0,
0,0,0,0,0,0.0,0.0,0.0,
0,0,0,0,0,0.0,0.0,0.0,
0,0,0,0,0,0.0,0.0,0.0,
0,0,0,0,0,0.0,0.0,0.0,
0,0,0,0,0,0.0,0.0,0.0,
0,0,0,0,0,0.0,0.0,0.0,
0,0,0,0,0,0.0,0.0,0.0,
0,0,0,0,0,0.0,0.0,0.0,
0,0,0,0,0,0.0,0.0,0.0,
0,0,0,0,0,0.0,0.0,0.0,
0,0,0,0,0,0.0,0.0,0.0,
0,0,0,0,0,0.0,0.0,0.0,
0,0,0,0,0,0.0,0.0,0.0,
0,0,0,0,0,0.0,0.0,0.0,
0,0,0,0,0,0.0,0.0,0.0,
0,0,0,0,0,0.0,0.0,0.0,
0,0,0,0,0,0.0,0.0,0.0,
0,0,0,0,0,0.0,0.0,0.0,
0,0,0,0,0,0.0,0.0,0.0,
0,0,0,0,0,0.0,0.0,0.0,
0,0,0,0,0,0.0,0.0,0.0,
0,0,0,0,0,0.0,0.0,0.0,
0,0,0,0,0,0.0,0.0,0.0,
0,0,0,0,0,0.0,0.0,0.0,
0,0,0,0,0,0.0,0.0,0.0,
0,0,0,0,0,0.0,0.0,0.0,
0,0,0,0,0,0.0,0.0,0.0,
0,0,0,0,0,0.0,0.0,0.0,
4095,4095,2641,2885,2560,3.56,-8.25,3.22,L
4095,3930,2552,2825,2356,5.21,-8.38,3.45,L
4095,4095,2636,2860,2307,4.26,-9.08,2.94,L
4095,3901,2688,2623,2447,3.15,-9.01,3.63,L
4095,4095,2654,2543,2673,3.07,-9.09,3.47,L
4095,3985,2655,2740,2716,3.49,-9.36,3.4,L
3911,3898,2718,2632,2540,3.38,-8.91,3.15,L
4095,4095,2475,2546,2376,3.3,-8.76,3.14,L
4071,4095,2843,2788,2762,3.11,-9.19,3.65,L
4095,4042,2801,2942,2639,3.45,-8.73,3.35,L
4095,4082,3064,2969,2672,2.97,-8.63,2.96,L
4095,4095,3052,3058,2812,2.96,-9.08,2.87,L
3962,4095,3074,3128,2777,3.34,-9.75,3.3,L
4095,4095,3015,3057,2905,3.85,-9.31,3.24,L
4013,4095,3078,3139,2754,3.33,-9.4,3.17,L
4071,4071,3008,2945,2895,3.26,-9.05,3.16,L
4095,4095,2919,3173,2901,3.31,-9.45,3.02,L
4095,4010,3121,3123,2949,3.05,-8.8,3.25,L
4095,4061,2995,3282,2972,3.05,-9.39,3.18,L
3983,4095,3103,3341,3155,3.01,-8.78,3.21,L
3923,4095,3187,3061,3244,3.15,-8.65,2.98,L
4095,4095,2798,2925,2784,3.49,-8.97,2.97,L
4095,4070,2939,2997,3017,3.14,-8.78,2.92,L
3987,4095,3053,3198,3083,3.24,-8.77,3.06,L
3909,3988,2957,3248,3284,3.03,-9.0,3.2,L
4095,3952,3052,3356,3192,3.11,-8.82,2.66,L
3955,3933,3215,3232,3255,2.9,-9.37,2.93,L
4037,3919,3156,3294,3296,3.11,-9.21,2.76,L
4095,4033,2766,3080,2814,3.14,-8.95,2.85,L
4095,4079,2958,2972,3036,3.01,-9.03,3.25,L
3938,4095,4059,4095,2565,0.68,9.06,6.09,M
4095,4078,4095,3963,1909,0.16,8.82,5.82,M
4095,3998,4095,4095,2275,0.52,8.79,5.1,M
4095,4095,4070,4095,2344,0.44,8.68,5.4,M
4095,3918,4095,3940,2595,0.89,8.95,5.45,M
4095,4095,4095,4095,2613,0.74,9.05,5.21,M
3903,4092,3989,4055,2761,0.83,9.31,5.72,M
4095,4095,4060,4095,2902,0.91,8.52,5.48,M
3900,4004,3959,4095,2843,1.07,9.26,5.37,M
4092,4045,4076,3942,3047,0.45,8.97,5.48,M
4004,3963,4095,4071,2519,0.43,8.81,5.89,M
3931,4028,4095,3950,3046,0.64,9.47,5.29,M
4006,4095,3955,4095,3123,0.6,9.17,5.34,M
4095,3935,3966,3934,2935,0.49,9.37,5.09,M
3961,4072,4050,4006,3306,0.88,9.11,5.67,M
4095,4095,4095,4053,3132,0.62,8.68,5.47,M
4064,4015,4095,4095,3150,0.98,8.76,6.05,M
4095,3971,4095,4082,3325,0.43,8.81,5.9,M
4054,4095,4095,4095,3352,0.4,8.51,5.93,M
3962,3967,4095,4095,3188,0.44,8.33,5.67,M
4095,4095,4095,3981,3030,0.49,9.09,5.88,M
3960,4095,4095,4012,3284,0.4,9.16,5.41,M
4095,3939,3910,4087,3212,0.48,8.5,5.54,M
4007,4039,4064,3985,3541,0.31,9.06,5.6,M
3931,4016,4095,3912,3810,0.81,8.5,6.42,M
3924,4031,4095,4095,2767,1.98,6.3,9.11,N
4095,4095,4095,3305,2715,1.08,9.79,5.01,N
4095,4095,4095,3284,2447,1.39,9.15,3.47,N
3947,4095,4095,3051,2382,0.59,9.44,3.74,N
4095,4040,4022,3207,2420,1.16,9.14,3.76,N
4095,4095,4095,3095,2521,0.93,9.55,4.52,N
4095,4078,4095,3079,2683,0.55,9.08,4.72,N
4095,3912,4004,3308,2683,0.57,9.08,4.6,N
4095,3895,4095,2723,2526,0.72,9.46,4.07,N
4095,4035,3991,3331,2691,0.83,9.57,4.03,N
4095,4095,4095,3409,2735,0.73,9.1,4.39,N
3969,4095,4095,3405,2860,1.0,9.52,4.05,N
3996,4095,4095,3192,2849,0.83,9.84,4.09,N
4095,3899,4095,3419,2990,0.66,9.48,4.25,N
3972,4095,4095,3243,3027,0.69,9.24,4.3,N
4095,3939,4095,3460,3135,0.61,9.17,4.18,N
4095,4053,4095,3372,3236,0.82,9.14,4.41,N
3980,4095,4095,3244,3088,0.55,9.14,4.23,N
4095,3976,4025,3310,3219,0.73,9.24,4.25,N
4008,4095,4095,3255,3193,0.97,9.21,4.18,N
4095,3942,4034,3245,3181,0.99,9.79,4.2,N
4046,3948,4095,3097,2849,0.98,9.7,4.5,N
4095,3998,4035,3483,3410,0.7,9.72,4.47,N
4013,4095,4001,3370,3042,1.25,9.03,4.53,N
4089,3871,2899,3963,4095,1.55,-7.95,6.48,O
4095,2895,2705,3295,3479,1.09,-8.34,6.67,O
4095,2878,2688,3115,3514,1.33,-8.58,6.58,O
4095,2831,2932,3433,4095,1.24,-8.21,6.34,O
4095,2803,2847,3410,3951,1.25,-8.77,6.21,O
4095,2722,2953,3483,4038,1.24,-8.44,6.48,O
4095,2962,3153,3293,3911,1.31,-8.14,6.26,O
4095,2875,3173,3462,4075,1.21,-8.67,6.32,O
4095,2986,3228,3491,3981,1.26,-8.26,6.45,O
4095,2798,3374,3562,4095,1.31,-8.47,5.9,O
3913,3029,3384,3531,3933,1.43,-8.44,5.98,O
4046,3098,3292,3587,3948,1.26,-8.46,6.48,O
4095,3046,3365,3473,4095,1.21,-8.49,6.22,O
4095,2855,3469,3464,4095,1.19,-8.61,5.97,O
4095,2814,3351,3255,4095,1.29,-8.55,5.76,O
4095,3136,3309,3753,4095,1.38,-8.84,5.9,O
4015,3126,3384,3505,4095,1.44,-8.18,6.2,O
3917,2987,3367,3746,3897,1.15,-8.9,5.8,O
4095,2970,3511,3772,3929,1.35,-8.43,5.95,O
4040,3175,3741,3884,4095,1.29,-8.36,5.94,O
3947,2917,3462,3715,4095,1.2,-8.62,6.21,O
4049,2906,3728,3932,4046,1.3,-8.74,6.25,O
4095,2804,3485,3560,4095,1.24,-8.9,5.79,O
3988,3248,3853,4051,4095,1.31,-8.33,5.68,O
4095,3172,3552,3890,4055,1.36,-8.32,6.0,O
4043,3767,4095,3982,4073,1.6,-8.76,5.68,O
3971,3989,4095,3826,3361,0.48,7.92,6.77,P
4095,3955,4048,4095,2975,0.58,8.46,6.92,P
4013,4095,3942,3473,2611,0.74,8.55,6.53,P
3976,4095,3722,3355,2594,0.61,8.21,7.17,P
4095,4095,4088,3671,2636,0.18,8.23,7.52,P
3925,4095,4092,3488,2662,0.41,8.18,7.08,P
4095,4095,3998,3572,2857,0.34,7.96,7.48,P
3963,3962,3978,3811,2814,0.44,8.05,7.15,P
3962,4095,3911,3859,3086,0.06,7.66,7.03,P
4063,3968,4039,3859,2913,0.32,8.15,7.44,P
3920,3907,4078,4095,2863,0.75,7.91,7.62,P
4095,4095,4084,4093,3067,0.74,7.7,7.21,P
4041,3918,4042,4016,2867,0.65,8.33,7.02,P
3901,4095,3981,4095,3048,0.69,8.23,7.34,P
4095,3999,3942,4010,2798,0.47,7.72,7.01,P
4095,4095,4095,4095,2985,0.88,8.1,7.17,P
4095,3947,4030,3854,2794,0.69,7.71,7.08,P
4095,4095,4044,4095,2923,0.64,8.0,7.3,P
3930,4095,4095,3934,2655,0.69,8.32,7.27,P
4059,4087,4070,4095,3199,0.4,8.16,7.1,P
3972,4095,4017,3968,2973,0.93,7.65,7.07,P
4095,3953,3912,4095,2953,0.89,7.91,7.08,P
3953,3919,4081,4095,3068,0.82,7.79,7.03,P
4095,3926,4051,3935,3031,0.83,7.55,7.07,P
4061,4095,3930,3956,2981,0.92,7.88,7.6,P
4060,3961,3937,3944,3099,0.57,7.99,7.62,P
4095,4095,4053,4046,3049,0.58,7.11,8.78,P
4019,4095,2143,2395,2642,2.11,6.23,8.48,Q
4095,4060,1740,1871,1641,1.32,6.27,8.7,Q
4095,4095,2016,2083,1858,1.36,6.47,9.37,Q
4095,4052,2089,2242,2063,1.51,6.68,8.7,Q
4072,3928,2162,2364,2130,1.72,6.54,8.71,Q
4071,3906,2152,2344,2165,1.64,6.44,9.39,Q
3991,4095,2057,2193,1986,1.12,6.2,9.0,Q
4020,4095,2374,2650,2163,1.4,6.1,9.01,Q
3993,4095,2414,2565,2390,1.2,5.94,8.92,Q
4089,4095,2425,2739,2414,1.18,6.33,9.57,Q
3988,3939,2437,2606,2402,1.12,6.1,9.54,Q
4063,4088,2385,2801,2502,1.52,6.23,8.76,Q
4095,4072,2275,2829,2460,1.57,6.44,9.29,Q
4095,4028,2489,2621,2474,1.5,6.43,9.1,Q
4095,4009,2375,2634,2575,1.34,6.25,9.32,Q
4095,4057,2506,2757,2702,1.48,5.9,8.7,Q
4095,4092,2325,2604,2451,1.85,6.35,8.8,Q
4005,3908,2462,2747,2717,1.21,6.28,8.91,Q
4095,4095,2294,2697,2571,1.71,6.27,8.89,Q
0,0,0,0,0,0.0,0.0,0.0,
0,0,0,0,0,0.0,0.0,0.0,
0,0,0,0,0,0.0,0.0,0.0,
0,0,0,0,0,0.0,0.0,0.0,
0,0,0,0,0,0.0,0.0,0.0,
0,0,0,0,0,0.0,0.0,0.0,
0,0,0,0,0,0.0,0.0,0.0,
0,0,0,0,0,0.0,0.0,0.0,
0,0,0,0,0,0.0,0.0,0.0,
0,0,0,0,0,0.0,0.0,0.0,
0,0,0,0,0,0.0,0.0,0.0,
0,0,0,0,0,0.0,0.0,0.0,
0,0,0,0,0,0.0,0.0,0.0,
0,0,0,0,0,0.0,0.0,0.0,
0,0,0,0,0,0.0,0.0,0.0,
0,0,0,0,0,0.0,0.0,0.0,
0,0,0,0,0,0.0,0.0,0.0,
0,0,0,0,0,0.0,0.0,0.0,
4095,2040,2599,2332,1738,-8.59,-1.65,6.24,S
3961,1921,2307,1940,1238,-8.42,-1.67,6.6,S
4095,2064,2433,2068,1402,-8.31,-0.78,6.08,S
4095,2097,2328,2066,1358,-8.35,-1.21,6.24,S
3914,2080,2520,2205,1462,-8.74,-1.01,6.36,S
4044,1947,2518,1977,1423,-8.0,-1.06,6.38,S
4068,2095,2657,2217,1444,-8.56,-1.26,6.33,S
3952,2247,2674,2335,1627,-8.24,-1.27,6.12,S
4069,2169,2632,2257,1643,-8.32,-1.34,6.46,S
4042,2150,2798,2418,1768,-7.79,-1.49,6.03,S
4095,2282,2804,2361,1789,-8.35,-1.56,6.04,S
4095,2165,2829,2307,1832,-7.82,-1.53,6.45,S
4091,2209,2819,2331,1901,-8.4,-1.56,6.68,S
4095,2214,3077,2321,2015,-7.83,-2.01,6.75,S
3900,2198,2852,2456,2016,-7.89,-1.73,6.73,S
4095,2205,2906,2298,2079,-8.22,-1.86,6.53,S
4062,2291,3036,2463,2084,-7.98,-1.97,6.78,S
4065,2295,3006,2368,2092,-8.25,-1.85,6.44,S
4095,2278,3077,2481,2054,-7.82,-1.8,6.25,S
4095,2283,2997,2422,2081,-8.29,-1.77,6.62,S
3947,2314,2854,2229,2034,-8.34,-2.06,6.15,S
4095,2372,3228,2423,2120,-7.95,-1.74,6.36,S
4095,2220,2970,2404,1927,-8.19,-1.79,6.26,S
4095,2523,3282,2587,2206,-8.23,-1.87,6.61,S
4078,2516,3252,2649,2060,-8.24,-1.89,6.33,S
4095,2417,3154,2683,2210,-8.29,-1.98,6.53,S
4028,2601,3536,2768,2582,-8.24,-2.56,6.64,S
4095,4095,2850,2865,2254,9.96,2.48,2.36,T
4095,3982,2735,2897,2665,9.89,2.37,2.06,T
4095,4095,2797,2816,2679,9.35,1.95,2.07,T
4050,4095,2952,2715,2715,10.13,1.69,2.16,T
4078,4014,2584,2636,2420,10.19,2.04,2.38,T
4095,3967,2929,2858,2638,9.26,2.02,2.4,T
4095,3956,2804,2804,2580,9.43,1.81,2.09,T
4095,3922,3176,3075,2702,9.56,1.85,2.19,T
4017,4095,3059,2892,2777,9.74,1.8,2.39,T
3898,3898,3054,3062,2695,10.24,1.96,2.48,T
4095,3965,3244,3065,2961,9.18,1.86,2.64,T
3929,3936,2988,2938,2958,9.7,1.75,2.54,T
4095,4095,2992,3118,2770,9.46,1.73,2.43,T
4027,3915,3023,2933,3008,9.65,1.81,2.66,T
4095,4095,3180,2971,3002,9.37,1.63,2.83,T
3935,3996,2901,2912,2586,9.42,1.71,2.92,T
4095,3959,3228,3104,3050,9.6,1.7,2.52,T
3911,3976,3268,3126,3038,9.94,1.64,2.79,T
3916,4095,3278,3082,3133,10.12,1.76,2.85,T
4095,3947,3126,3121,2955,9.97,1.72,2.71,T
4095,4095,2872,2916,2723,9.7,1.49,2.62,T
4095,3913,3128,3224,3006,9.97,1.61,2.83,T
4095,3976,3421,3623,3410,9.39,1.89,3.24,T
4095,3962,4087,2755,2187,4.25,-8.62,2.39,U
4020,4095,4095,2405,2074,3.34,-8.81,2.77,U
4095,4095,4003,2612,2188,3.61,-9.86,2.36,U
3912,4095,4078,2388,2091,3.39,-8.74,2.8,U
4095,3912,4067,2772,2368,4.01,-8.76,2.77,U
4095,4026,4095,2581,2444,3.95,-8.65,2.46,U
3964,4095,4095,2670,2577,3.6,-9.43,2.69,U
4095,3925,4010,2800,2515,3.94,-9.2,2.61,U
4095,3940,4095,2759,2590,3.65,-8.56,2.57,U
4095,4095,3958,2877,2530,4.2,-9.28,2.9,U
4095,4095,4054,2629,2415,3.71,-8.68,2.5,U
4095,4095,3994,2628,2389,3.64,-8.83,2.67,U
4003,3990,4095,3005,2675,3.51,-9.26,2.57,U
4095,4071,4084,3018,2808,3.87,-9.35,2.62,U
4095,3967,4095,2806,2631,3.82,-9.3,2.55,U
4068,4095,4095,2492,2437,4.03,-8.63,2.59,U
4095,3956,4003,2573,2492,3.59,-8.7,2.43,U
4066,4095,3998,2765,2549,3.6,-9.09,2.52,U
4095,4095,4012,2597,2555,3.45,-8.89,2.48,U
3899,4075,4095,3106,2778,3.82,-8.97,2.61,U
4095,3894,3964,2890,2956,3.83,-8.9,2.65,U
4095,3945,4015,3028,3010,4.05,-8.85,2.69,U
4020,4054,4095,3335,3063,5.8,-7.63,2.61,U
4025,4018,4095,1697,1317,0.5,-8.59,6.16,V
3984,3909,4095,1680,1522,0.55,-8.39,6.42,V
4095,4095,4095,1735,1668,0.35,-8.17,6.8,V
4095,4081,4095,1965,1779,0.6,-8.05,6.7,V
3987,4095,4095,2169,1779,0.4,-8.31,6.69,V
4095,4045,4095,2039,1789,0.31,-8.13,6.48,V
4067,4007,3935,1768,2474,1.57,-8.86,5.44,V
3999,4095,3929,1890,2407,1.17,-9.07,4.91,V
4095,4001,4095,2187,2764,1.05,-8.94,5.29,V
4095,4095,4095,2240,2650,0.73,-8.78,5.15,V
4011,4095,4095,2214,2867,1.33,-9.2,4.91,V
4095,4095,3948,2353,2733,1.28,-8.91,4.98,V
4095,4095,3953,2694,2731,1.42,-8.53,5.21,V
0,0,0,0,0,0.0,0.0,0.0,
0,0,0,0,0,0.0,0.0,0.0,
0,0,0,0,0,0.0,0.0,0.0,
0,0,0,0,0,0.0,0.0,0.0,
0,0,0,0,0,0.0,0.0,0.0,
0,0,0,0,0,0.0,0.0,0.0,
0,0,0,0,0,0.0,0.0,0.0,
0,0,0,0,0,0.0,0.0,0.0,
0,0,0,0,0,0.0,0.0,0.0,
0,0,0,0,0,0.0,0.0,0.0,
0,0,0,0,0,0.0,0.0,0.0,
0,0,0,0,0,0.0,0.0,0.0,
0,0,0,0,0,0.0,0.0,0.0,
0,0,0,0,0,0.0,0.0,0.0,
0,0,0,0,0,0.0,0.0,0.0,
0,0,0,0,0,0.0,0.0,0.0,
0,0,0,0,0,0.0,0.0,0.0,
0,0,0,0,0,0.0,0.0,0.0,
0,0,0,0,0,0.0,0.0,0.0,
0,0,0,0,0,0.0,0.0,0.0,
3895,4095,4095,3917,1648,0.33,-8.16,7.11,W
4095,4095,4013,4008,1747,0.33,-7.9,6.48,W
4035,4012,3940,4095,1829,0.65,-8.39,6.25,W
3989,3923,4095,3917,1955,0.39,-8.03,6.32,W
3953,4095,4062,3992,2145,0.88,-8.03,6.7,W
4095,4008,4095,4095,2203,0.78,-8.56,6.12,W
3919,3952,4095,4095,2025,0.63,-8.14,6.84,W
4095,4095,4095,3996,2599,0.43,-8.3,6.3,W
4044,4092,4095,3994,2521,0.84,-8.44,6.43,W
3916,4058,4051,4081,2554,0.8,-8.25,6.89,W
4095,4072,4095,3951,2708,0.58,-8.23,6.83,W
4095,4095,4095,4072,2701,0.62,-8.11,7.13,W
4047,4095,4030,4044,2881,0.9,-8.2,6.8,W
4059,4095,4095,4032,2486,1.02,-8.17,6.69,W
4095,4040,4095,3914,2816,0.44,-8.39,6.42,W
3990,3994,4095,3990,2591,0.72,-8.39,6.55,W
3916,4049,4095,3933,2791,0.48,-8.17,6.82,W
3963,4005,4095,3900,2969,0.7,-8.54,6.32,W
4030,3945,3917,4011,2930,0.77,-8.81,6.45,W
4095,4095,3975,4095,3108,0.91,-8.07,6.62,W
3991,4095,3940,4095,2786,0.85,-8.49,6.59,W
4095,3987,3947,4095,3147,1.39,-8.25,6.39,W
2985,4055,4095,2478,2172,2.51,-8.52,6.2,X
1899,3954,3102,2032,1887,2.32,-8.11,6.87,X
1759,3911,2879,1900,1754,2.79,-7.16,7.3,X
1938,4081,2879,2015,1800,3.0,-7.55,7.31,X
2007,3921,2932,1992,1896,2.55,-7.61,7.65,X
1870,3982,2828,2041,1796,3.11,-7.67,7.25,X
2104,4095,2800,2153,2087,2.33,-7.47,7.25,X
2245,4095,2902,2130,2038,2.37,-7.34,6.95,X
2050,4095,2936,2031,1905,2.67,-7.4,7.18,X
2393,4095,3053,2235,2138,3.36,-7.5,7.18,X
2170,3969,2915,2165,1985,2.65,-6.98,7.75,X
2171,4095,2809,2240,2051,1.88,-7.53,8.2,X
2225,4084,2818,2120,1996,3.09,-7.43,6.91,X
2260,4095,2989,2066,1983,3.35,-7.62,6.45,X
2506,3929,3390,2292,2187,3.11,-7.92,6.54,X
2495,3934,3209,2360,2183,2.94,-7.94,6.82,X
2662,4095,3501,2323,2143,2.92,-7.88,6.56,X
2559,4095,3243,2317,2185,3.15,-8.08,6.41,X
2613,4024,3357,2316,2230,2.62,-7.83,6.8,X
4095,4095,4035,4056,4095,2.0,-7.0,7.09,X
4084,4095,3660,3335,3718,1.84,-9.18,5.64,X
2220,4095,2309,2016,1706,2.3,-8.73,5.13,X
2138,4095,2373,1964,1766,1.87,-8.38,5.52,X
2356,4095,2364,2134,2023,2.01,-8.18,5.39,X
2685,4095,2541,2160,2065,2.19,-8.66,5.17,X
2779,4037,2598,2204,2199,2.09,-8.45,5.4,X
2686,3988,2406,2293,1955,2.37,-8.41,5.18,X
3006,3994,2746,2400,2275,2.06,-8.93,5.25,X
3128,4095,2630,2341,2136,1.96,-8.36,5.41,X
3035,3975,2516,2376,2174,2.06,-8.87,5.46,X
4095,4095,3664,3863,3064,1.95,-7.96,6.11,X
4033,2024,1852,3003,4095,2.02,-8.38,0.75,Y
4095,2007,2097,3335,3995,1.55,-10.19,1.12,Y
3961,2015,2024,3327,3932,2.3,-9.56,1.36,Y
4072,1883,2250,3426,4095,2.25,-9.29,2.75,Y
3905,1972,2268,3229,3981,2.14,-9.64,2.76,Y
4063,1924,2281,3155,3975,2.13,-9.32,2.65,Y
4095,2119,2448,3369,4087,2.03,-9.28,2.67,Y
3932,1922,2190,3133,3973,2.28,-9.24,2.5,Y
3938,2029,2471,3777,4095,2.35,-9.53,2.63,Y
4095,2014,2665,3448,4095,2.3,-9.37,3.07,Y
4095,1840,2546,3000,4095,2.37,-9.58,3.01,Y
3898,2160,2774,3639,4095,2.19,-9.85,3.21,Y
4095,2053,2839,3279,4095,2.28,-8.76,3.25,Y
4095,2095,2745,3601,4095,2.48,-9.26,3.3,Y
4095,2150,2943,3461,4018,2.29,-9.36,2.8,Y
4095,2206,2905,3367,3959,2.17,-9.14,2.74,Y
3893,2134,3008,3646,4095,2.31,-9.79,2.79,Y
4088,2248,2792,3412,4095,1.96,-8.96,2.79,Y
4095,2110,2947,3686,4095,2.3,-9.4,2.47,Y
4065,2113,3052,3666,3975,2.06,-9.8,2.77,Y
4095,2118,2985,3606,4095,1.95,-9.74,2.71,Y
4095,2259,2851,3651,4095,2.19,-8.87,2.64,Y
3892,3985,2211,2700,2379,0.79,-8.93,4.5,Z
4095,4095,2226,2584,2081,1.2,-9.8,3.92,Z
4095,4095,2078,2651,2183,0.84,-8.99,3.71,Z
4052,4095,2210,2677,2113,1.66,-10.03,3.42,Z
4095,4095,2318,2707,2090,1.56,-9.21,3.65,Z
4095,3890,2475,2849,2442,1.64,-9.84,3.38,Z
4018,4074,2466,2837,2592,1.43,-9.03,3.63,Z
4095,4005,2595,3015,2579,1.41,-9.67,3.28,Z
4095,4095,2689,2959,2414,1.36,-9.53,3.63,Z
3901,4045,2755,2882,2506,1.11,-9.62,3.88,Z
4063,3912,2766,3071,2721,1.64,-9.71,3.3,Z
4095,4095,2746,3123,2590,1.56,-9.43,3.52,Z
4095,4095,2707,2959,2641,1.97,-9.57,3.03,Z
4010,3994,2892,3248,2782,1.73,-9.56,3.01,Z
4095,3965,2582,3078,2570,1.4,-9.51,3.21,Z
4044,3974,2873,3198,2748,1.33,-9.44,3.48,Z
4095,4095,2691,3225,2624,1.4,-9.58,3.31,Z
4095,4095,2729,3394,2627,1.7,-9.45,3.04,Z
4095,4095,2702,3435,2721,1.55,-9.79,3.11,Z
4095,4095,2793,3258,2735,1.48,-9.44,3.29,Z
4095,4095,2931,3355,2851,1.27,-9.17,3.57,Z
4095,3921,2629,2867,2608,1.61,-9.36,3.44,Z
4028,4095,2957,3361,2899,1.66,-9.13,3.03,Z
3900,4095,2869,3343,2904,1.75,-9.16,3.32,Z
4095,3948,3038,3414,2938,1.99,-9.02,3.11,Z
4095,4095,3033,3391,2726,1.55,-9.41,3.45,Z
4088,4095,3051,3297,2918,1.59,-9.75,3.17,Z
4095,4023,2941,3413,2743,1.67,-9.55,3.34,Z
4089,4095,2611,3089,2695,1.49,-9.03,3.48,Z
4095,4049,3029,3371,2904,1.39,-9.81,3.34,Z
4095,3956,2949,3336,2990,1.64,-9.33,3.23,Z
4095,3948,3402,3504,2846,1.37,-9.17,3.54,Z
3272,3913,4095,2608,3421,-0.94,-9.12,5.58,K
2086,4095,3918,2009,2538,0.68,-7.94,5.07,K
2486,3974,4095,2143,2555,-0.18,-9.17,5.89,K
2867,3992,4095,2365,2786,0.14,-8.52,5.71,K
3171,3903,3979,2334,2779,0.49,-8.55,5.63,K
3362,4095,3954,2325,2799,0.4,-8.72,6.28,K
3407,4095,4090,2412,2685,0.12,-8.94,6.17,U
4095,3948,3906,1604,1765,5.84,-6.6,7.71,U
3989,3965,4095,1898,2082,5.68,-5.95,6.91,U
3968,4051,3968,2170,2178,6.06,-6.22,6.72,U
4069,4043,4095,2224,2296,5.79,-5.96,5.9,U
3967,4095,4095,2161,2443,6.1,-6.31,6.13,U
4045,4095,3944,2251,2539,5.99,-5.89,6.14,U
4095,3893,3915,2370,2394,6.08,-6.49,6.2,U
4095,4016,3962,2349,2545,6.14,-6.04,6.0,U
3965,4095,3961,2450,2612,6.61,-6.05,5.95,U
3913,4016,3953,2475,2588,6.56,-6.22,5.57,U
3929,3937,3929,2535,2559,6.47,-6.23,5.46,U
4095,4020,4095,2510,2553,6.87,-6.54,5.11,U
4012,4095,4095,2603,2552,6.36,-6.35,5.22,U
4095,4095,4062,2536,2717,6.4,-6.75,5.51,U
4095,3942,3953,2613,2795,5.6,-6.38,5.62,U
4095,3971,4071,2522,2807,6.55,-6.45,5.56,U
4095,2296,4095,1901,1359,10.08,1.48,5.79,R
4095,2449,4095,2086,1790,8.94,1.32,5.03,R
4095,2512,3957,2094,1935,8.65,1.26,4.9,R
4086,2600,3974,2156,1977,9.31,1.72,4.52,R
3934,2479,4095,2305,2081,9.17,1.71,4.11,R
3910,2508,4006,2057,2214,9.49,1.63,4.43,R
3992,3972,4095,3194,3250,8.76,1.86,4.56,R
4095,2256,2788,2803,3362,0.81,-8.97,-0.9,A
4013,1931,2456,1892,1368,-0.35,-6.58,-0.35,A
3967,1942,2778,2095,1593,-0.67,-9.75,-0.97,A
3939,2008,2706,2194,1649,0.06,-9.01,-1.39,A
3977,2009,2917,2220,1819,-0.66,-9.56,-1.02,A
3920,1922,2926,2182,1873,-0.31,-9.67,-0.83,A
4095,2159,2957,2061,1906,-0.24,-9.31,-1.02,A
3950,2068,3060,2103,1996,-0.23,-9.47,-0.83,A
4031,2108,2663,2027,1779,-0.58,-9.68,-0.59,A
4095,2143,2906,2360,2029,-0.88,-9.74,-0.75,A
3938,2185,3018,2210,2130,-0.52,-9.59,-0.47,A
4095,2291,3033,2159,2018,0.28,-9.37,-0.88,A
4095,2247,3099,2224,2180,-0.24,-9.58,-1.13,A
4061,2230,3123,2232,2203,-0.33,-9.49,-0.88,A
4095,2327,2971,2232,2008,-0.11,-9.15,-1.18,A
3954,2340,2889,2379,2048,0.2,-9.33,-0.96,A
4035,2343,3053,2225,2051,-0.31,-9.21,-0.91,A
4095,2262,3131,2347,2130,-0.4,-9.38,-1.09,A
4095,2236,2865,2341,2026,-0.05,-9.83,-1.03,A
4012,2054,2903,2109,1978,-0.35,-9.25,-1.02,A
4095,2303,3091,2246,2183,-0.02,-9.93,-1.27,A
3917,2188,2901,2237,2093,-0.11,-9.42,-1.08,A
4006,2177,3001,2391,2159,-0.36,-9.76,-0.98,A
3899,2111,3084,2318,2161,-0.19,-9.71,-0.82,A
3984,2294,3338,2436,2129,-0.78,-9.02,-1.39,A
3980,2315,3244,2393,2170,-0.65,-9.33,-1.25,A
4033,2206,3144,2470,2172,-0.76,-9.27,-0.89,A
4095,2289,3432,2427,2203,-0.98,-9.16,-0.75,A
4095,2895,3937,2958,3277,-1.06,-10.08,-0.4,A
4095,4095,4005,4095,4036,-0.87,-9.83,3.58,B
2302,4095,4000,4095,4084,-2.43,-7.89,4.7,B
3839,4095,4095,4060,4095,1.03,-9.94,2.33,B
2720,4095,4095,4091,4095,1.64,-9.68,2.63,B
2951,4095,4074,4013,3996,1.44,-9.3,2.49,B
3865,4046,4044,3937,4095,0.77,-9.55,2.61,B
3002,4095,4095,3917,4095,1.28,-9.96,2.98,B
2852,3956,4047,4095,4095,1.68,-10.05,2.65,B
2886,3976,4095,3906,4095,1.6,-9.96,3.4,B
4095,4095,3926,4014,3988,1.61,-9.87,3.55,B
3575,3931,4095,4095,4095,1.64,-9.27,3.7,B
2837,4007,4092,4095,4095,1.71,-8.94,3.7,B
2702,4095,3891,3930,4036,1.19,-8.98,3.79,B
2840,4034,4094,4095,4095,1.91,-9.92,3.45,B
2921,4095,4013,4072,4095,1.63,-9.29,3.71,B
3061,4062,4095,3994,4095,1.64,-9.24,3.7,B
3126,3984,3964,3913,3936,1.69,-8.87,3.96,B
3293,4070,4095,4076,4095,1.68,-8.66,3.92,B
3224,3994,4095,3952,4072,1.6,-8.9,3.92,B
3144,4095,4089,4010,4095,1.59,-9.41,3.78,B
3043,4095,4095,4048,4095,1.63,-8.84,3.99,B
3246,3947,4095,3962,3915,1.67,-9.22,3.85,B
3134,4095,4033,4095,4095,1.75,-8.78,3.89,B
3146,4095,3909,4095,4095,1.73,-9.52,3.85,B
3083,4095,4032,4004,3963,1.7,-9.02,3.91,B
3189,4095,4095,4095,4016,1.6,-9.16,3.87,B
3263,4019,4095,3933,4095,1.67,-9.36,4.03,B
3025,4095,3999,3943,3905,1.7,-8.77,3.66,B
4095,4095,4063,3668,2796,0.11,-9.55,3.88,D
4095,3989,3855,2918,2596,-0.99,-9.96,4.27,D
4095,4095,3042,2387,2116,-0.47,-9.03,4.35,D
3986,4095,3191,2586,2218,-0.38,-9.71,4.44,D
4016,3930,3138,2466,2264,-0.32,-9.63,4.17,D
3941,4095,2871,2531,2307,-0.11,-9.39,3.93,D
3961,3892,3029,2642,2444,-0.84,-9.67,3.46,D
3899,4095,3097,2688,2386,-0.3,-9.2,3.3,D
4095,4081,3236,2753,2367,-0.94,-9.11,3.54,D
4095,3985,3144,2539,2415,-0.57,-10.0,3.25,D
4095,4095,3272,2661,2280,-0.66,-9.65,2.97,D
4095,3979,3028,2709,2331,-0.57,-9.97,3.3,D
4095,3941,3051,2638,2469,-0.85,-9.98,3.43,D
3896,4095,3145,2913,2442,-0.35,-9.56,3.45,D
4095,4005,3117,2809,2429,-0.81,-9.4,3.34,D
4095,4064,2862,2494,2298,-0.77,-9.73,3.3,D
4026,4037,3284,2857,2503,-1.14,-9.31,3.33,D
4095,3901,3215,2732,2624,-0.43,-9.35,3.02,D
4012,4070,3389,2795,2546,-0.91,-9.71,3.21,D
3966,3937,3455,2865,2637,-0.6,-9.7,3.1,D
3979,4057,3372,3013,2489,-0.71,-9.45,3.18,D
4095,4095,3365,2889,2551,-0.48,-9.69,3.03,D
1340,3321,2979,2289,1974,0.13,-9.54,3.44,E
1203,2514,2505,1988,1786,0.36,-9.44,3.83,E
1321,2568,2639,2199,1737,0.29,-9.04,4.12,E
1536,2449,2823,2352,1871,0.09,-9.21,3.94,E
1456,2393,2876,2266,1881,0.36,-9.13,3.69,E
1383,2583,2843,2175,1845,-0.5,-9.5,3.77,E
1582,2582,2958,2397,1821,-0.18,-9.5,3.81,E
1661,2515,2926,2330,2003,-0.1,-9.35,3.96,E
1606,2534,2966,2255,1898,0.16,-9.6,3.56,E
1623,2499,3114,2274,1883,-0.23,-9.32,3.56,E
1659,2414,3290,2377,1981,-0.19,-9.14,3.8,E
1700,2467,3344,2287,2045,0.1,-9.41,3.5,E
1700,2562,3250,2465,2100,-0.33,-9.18,3.54,E
1729,2467,3226,2420,1974,-0.31,-9.77,3.6,E
1834,2538,3119,2299,1967,-0.09,-9.84,3.75,E
1865,2519,3229,2327,1978,0.17,-9.2,3.87,E
1705,2454,3198,2443,1913,-0.26,-9.86,3.8,E
1866,2395,3263,2506,2024,0.06,-9.72,3.49,E
1944,2500,3379,2534,1973,-0.27,-9.57,3.79,E
1902,2456,3419,2453,2041,0.09,-9.21,3.57,E
1989,2398,3589,2543,2161,0.11,-9.94,3.48,E
1921,2409,3438,2526,2012,0.06,-9.32,3.73,E
1961,2423,3449,2467,2026,-0.22,-9.55,3.81,E
2074,2429,3466,2554,2093,-0.04,-9.82,3.45,E
2140,2514,3427,2427,1998,-0.02,-9.04,3.59,E
3905,3044,4025,4095,4095,-1.06,-9.26,5.34,F
3988,3421,4079,4092,3943,-0.26,-9.32,4.89,F
3969,3352,4095,4020,4095,-0.59,-9.3,5.14,F
4095,3066,4095,4095,4009,0.07,-8.85,4.82,F
4095,3298,4095,4095,4095,-0.71,-9.46,5.4,F
4095,3901,4004,3951,4059,-0.46,-8.69,5.53,F
3898,3375,4095,4060,4049,-0.08,-9.14,5.04,F
4095,3787,4095,3985,3991,-0.13,-9.09,5.24,F
4060,3842,4095,4095,3922,-0.16,-9.2,5.05,F
4095,4095,4081,4078,3937,-0.13,-8.87,5.07,F
4095,3305,4047,4095,3905,1.66,-8.75,6.18,F
4095,3650,4095,4095,4047,1.57,-8.36,5.74,F
4084,3700,4095,3952,4095,1.63,-8.91,5.72,F
4095,3784,4095,4095,4095,1.37,-8.38,5.72,F
3917,3780,4095,3968,4000,1.81,-8.44,5.79,F
4095,3920,3894,3939,4020,1.57,-8.06,5.95,F
4063,4095,2283,2026,2036,-1.05,-8.76,6.87,G
4095,4011,1933,1971,1701,-1.77,-7.52,6.86,G
4095,4095,2013,1966,1775,-1.9,-7.52,7.24,G
3972,4095,2015,2072,1971,-1.35,-7.46,7.21,G
3926,4062,2151,2165,1927,-1.39,-7.43,7.7,G
4095,4013,1878,1960,1781,-1.1,-7.97,7.33,G
4095,3947,2311,2190,2170,-1.2,-7.61,7.65,G
4056,4067,2257,2320,2019,-1.12,-8.14,7.02,G
3965,4095,2251,2275,2075,-0.76,-8.47,6.52,G
3904,4095,2406,2389,2118,-0.67,-8.35,6.17,G
3955,4095,2363,2307,2165,-0.38,-8.29,6.38,G
3938,4095,2420,2313,2196,-0.83,-8.02,6.67,G
3941,4095,2258,2177,1896,-0.81,-8.34,6.41,G
4095,4095,2505,2337,2097,-0.83,-8.22,6.88,G
4095,4095,2503,2348,2180,-0.89,-8.54,6.44,G
3916,4095,2642,2325,2197,-0.83,-8.38,6.35,G
3891,4095,2671,2415,2262,-0.9,-7.98,6.76,G
4095,4095,2554,2360,2339,-0.8,-8.24,6.42,G
4095,4026,2659,2396,2411,-0.61,-8.39,6.83,G
4086,4095,2636,2641,2456,-0.48,-8.49,6.61,G
4092,4095,2730,2655,2262,-0.94,-8.39,6.39,G
4095,4095,2743,2540,2306,-0.92,-8.58,6.85,G
3947,4095,2678,2707,2453,-0.83,-7.86,6.31,G
3959,3921,2611,2647,2480,-0.85,-8.08,6.63,G
3954,3991,2356,2538,2229,-0.66,-8.13,6.55,G
4095,4095,2486,2633,2548,-0.76,-7.91,6.68,G
3910,4095,2492,2415,2319,-0.8,-7.88,7.03,G
3960,3977,2336,2405,2359,-0.66,-8.56,6.31,G
4091,4095,2675,2794,2415,-0.85,-8.0,6.68,G
4095,4027,2846,2731,2470,-0.55,-7.78,6.85,G
4095,4095,2834,2889,2455,-0.8,-7.8,6.2,G
3953,4095,4095,2989,2454,2.37,-4.29,9.68,H
4095,4036,4039,2805,2534,5.58,-3.04,9.42,H
4095,3909,4095,2619,2222,5.28,-2.93,9.24,H
4034,4040,4095,2942,2683,5.8,-2.79,8.86,H
3929,4095,4070,2764,2594,5.12,-2.93,9.17,H
4064,4095,3971,3088,2854,5.12,-2.94,9.41,H
4095,4095,4095,2659,2679,5.32,-2.97,9.2,H
4095,4095,3984,3130,2885,5.13,-2.88,9.86,H
4074,4095,4095,3098,3088,5.54,-3.2,8.79,H
3970,4095,4095,3105,2957,5.32,-2.85,9.34,H
4074,4095,4019,3177,3095,5.62,-2.92,9.41,H
3929,4095,4095,3242,2952,5.36,-2.79,9.53,H
4078,4095,4095,3361,2956,4.91,-3.12,9.77,H
4095,4003,4002,3347,3146,4.94,-3.05,9.04,H
4029,4095,4083,3156,3134,5.28,-2.94,9.08,H
4095,3943,3922,3268,3192,5.04,-3.11,8.91,H
3999,3899,3971,3329,2989,5.47,-2.93,9.58,H
3945,4095,4095,3318,3119,4.63,-3.09,9.62,H
4095,4095,3907,3585,3246,5.05,-3.06,9.51,H
4095,4095,4095,3373,3091,5.27,-3.24,8.97,H
4095,4095,3993,3038,2820,5.21,-3.55,8.89,H
4095,4095,4095,3686,3127,4.71,-4.39,8.89,H
3970,3950,3992,3504,3392,5.5,-4.72,8.66,H
4095,3938,4095,3543,3295,5.15,-4.57,8.48,H
4095,4022,4095,3577,3341,5.11,-5.04,8.17,H
3898,4095,3948,3593,3216,5.44,-4.92,7.77,H
4095,3975,4044,3519,3498,5.37,-4.83,8.3,H
4095,4095,4081,3762,3425,5.57,-4.86,8.05,H
4063,2077,2682,3906,4010,-1.06,-10.57,3.77,I
4095,2042,2688,4095,4095,-1.47,-9.21,3.73,I
4095,1839,2728,4009,4054,-1.8,-9.54,3.78,I
4057,1979,2188,4036,4032,-1.18,-9.62,3.29,I
4062,2198,2706,3723,4095,0.09,-9.13,3.31,I
4095,2275,2836,3529,4095,-0.59,-9.27,3.33,I
4055,2275,2797,3617,3917,-1.07,-9.66,3.79,I
4023,2259,2990,3654,3926,0.36,-8.71,3.06,I
4095,2370,3014,3938,4095,-0.87,-9.78,3.63,I
4095,2303,2916,3840,3927,-0.66,-9.56,3.51,I
4095,2349,2816,3878,4050,-0.79,-9.85,3.57,I
3937,2255,3086,3982,4019,-0.75,-9.54,3.62,I
3981,2227,2931,4095,4095,-0.69,-9.13,2.99,I
4095,2184,2795,3570,4095,-0.86,-9.72,3.44,I
4077,2457,3134,3996,3945,-0.26,-9.71,3.43,I
3899,2266,3017,3945,4095,-0.3,-9.57,3.16,I
4095,2357,3058,3973,3934,-0.27,-9.92,3.35,I
4059,2312,3303,4095,4095,-0.45,-9.09,3.53,I
4095,2307,3132,4095,3925,-0.72,-9.91,3.76,I
4095,2381,3178,4095,3925,-0.54,-9.94,3.11,I
4012,2416,3125,3962,3912,-0.32,-9.63,3.58,I
3905,2316,3115,3899,4095,-0.39,-9.73,3.33,I
4095,2376,3376,4095,4095,-0.93,-8.92,3.71,I
4095,1828,2679,2593,4089,3.63,-9.45,0.79,J
4024,2037,3014,3111,4095,3.29,-8.51,1.05,J
4095,2056,2912,2824,4089,2.42,-8.99,1.52,J
4095,2012,2894,3266,4095,2.69,-9.14,1.21,J
3921,1944,2973,3289,3958,3.28,-9.43,1.39,J
4015,2076,3051,3332,3995,2.88,-9.87,1.28,J
4095,2081,2965,3529,4095,2.95,-9.1,1.44,J
4095,1972,2859,3148,4037,2.72,-9.4,1.48,J
3922,2234,2934,3399,3948,3.02,-9.64,1.32,J
4034,2267,3289,3528,4095,3.02,-9.11,1.19,J
4095,2140,3214,3642,4047,2.79,-9.42,1.47,J
4095,2085,3063,3406,4095,2.69,-9.48,1.7,J
4049,2197,3022,3761,4095,3.46,-9.82,1.22,J
4095,2161,3226,3510,3982,3.03,-9.35,1.25,J
4095,2115,3302,3674,4095,2.8,-9.32,1.29,J
3932,2300,3180,3679,3942,3.06,-9.5,1.18,J
4095,2277,3304,3843,3892,3.11,-9.32,1.48,J
3942,2227,3202,3593,4095,2.76,-9.44,1.35,J
4095,2144,3315,3576,4095,3.18,-9.56,1.26,J
3965,2183,3432,3937,4095,3.02,-9.16,1.16,J
3909,2274,3142,3611,4095,2.87,-9.43,1.42,J
4095,2130,2932,3403,4029,2.99,-9.59,1.26,J
4095,2233,3242,3573,4095,2.85,-9.42,1.63,J
0,0,0,0,0,0.0,0.0,0.0,
0,0,0,0,0,0.0,0.0,0.0,
0,0,0,0,0,0.0,0.0,0.0,
0,0,0,0,0,0.0,0.0,0.0,
0,0,0,0,0,0.0,0.0,0.0,
0,0,0,0,0,0.0,0.0,0.0,
0,0,0,0,0,0.0,0.0,0.0,
0,0,0,0,0,0.0,0.0,0.0,
0,0,0,0,0,0.0,0.0,0.0,
0,0,0,0,0,0.0,0.0,0.0,
0,0,0,0,0,0.0,0.0,0.0,
0,0,0,0,0,0.0,0.0,0.0,
0,0,0,0,0,0.0,0.0,0.0,
0,0,0,0,0,0.0,0.0,0.0,
0,0,0,0,0,0.0,0.0,0.0,
0,0,0,0,0,0.0,0.0,0.0,
0,0,0,0,0,0.0,0.0,0.0,
0,0,0,0,0,0.0,0.0,0.0,
0,0,0,0,0,0.0,0.0,0.0,
0,0,0,0,0,0.0,0.0,0.0,
0,0,0,0,0,0.0,0.0,0.0,
0,0,0,0,0,0.0,0.0,0.0,
0,0,0,0,0,0.0,0.0,0.0,
0,0,0,0,0,0.0,0.0,0.0,
0,0,0,0,0,0.0,0.0,0.0,
0,0,0,0,0,0.0,0.0,0.0,
0,0,0,0,0,0.0,0.0,0.0,
0,0,0,0,0,0.0,0.0,0.0,
0,0,0,0,0,0.0,0.0,0.0,
0,0,0,0,0,0.0,0.0,0.0,
0,0,0,0,0,0.0,0.0,0.0,
0,0,0,0,0,0.0,0.0,0.0,
4095,4095,2673,2842,2512,3.45,-8.78,3.06,L
4095,4095,2560,2861,2408,5.46,-8.82,3.51,L
4095,4095,2579,2879,2387,4.28,-8.71,3.1,L
4095,4033,2561,2561,2611,3.21,-9.15,3.55,L
4095,4034,2549,2705,2678,2.96,-9.0,3.67,L
3956,3923,2648,2702,2643,3.46,-8.61,3.55,L
4095,4046,2721,2734,2694,3.46,-9.04,3.31,L
4095,4095,2577,2424,2353,3.29,-8.97,3.02,L
4095,4095,2935,2675,2672,3.11,-9.04,3.75,L
4095,4095,3054,2790,2861,3.44,-9.12,3.42,L
4091,3929,2919,2920,2737,3.13,-9.18,3.13,L
3908,4095,2992,2834,2701,3.2,-8.86,2.77,L
4095,4095,3131,3003,2967,3.31,-9.74,3.26,L
4095,3967,2962,3040,2919,3.62,-8.87,3.46,L
4095,4095,2946,2961,2955,3.15,-8.7,2.94,L
4095,3990,2926,3087,2891,3.1,-9.13,3.17,L
4095,4049,3075,3186,3047,3.27,-8.79,2.98,L
4095,4080,3175,3164,3004,3.01,-9.1,3.06,L
4095,4054,3076,3058,3070,3.0,-8.96,3.27,L
4095,3894,2968,3121,2991,3.08,-8.65,3.07,L
4095,4095,3058,3068,3237,3.38,-9.37,3.07,L
3972,4093,2759,2746,2979,3.33,-9.24,3.0,L
3925,4095,3153,3056,3258,3.07,-8.92,2.97,L
4004,3944,3199,3178,3272,3.24,-9.2,3.19,L
4033,3944,3106,3221,3166,3.23,-9.22,3.2,L
4095,4014,2955,3331,3079,3.33,-9.7,2.87,L
3892,4095,3065,3174,3174,3.14,-9.33,2.87,L
4095,3891,3054,3306,3323,3.15,-8.64,2.83,L
4070,4033,2861,2983,2998,3.1,-9.53,2.96,L
3899,4095,2888,2972,2980,2.94,-8.98,3.14,L
4095,4025,4095,4095,2361,0.58,9.09,6.04,M
3935,4022,4031,4045,2064,0.24,8.52,5.71,M
4094,4095,4095,3960,2256,0.55,8.92,5.45,M
4095,4095,4095,3891,2466,0.47,9.26,5.41,M
4010,3965,3987,4095,2479,0.85,8.66,5.2,M
4061,4095,3999,4095,2710,0.68,9.11,5.19,M
3923,4095,4050,4004,2808,0.8,9.01,5.71,M
4095,4095,4065,4051,2870,0.85,8.61,5.39,M
3918,4024,4095,4088,3027,1.0,9.09,5.26,M
4095,4095,3932,4095,2895,0.46,8.88,5.94,M
4079,4095,4082,3978,2645,0.44,8.65,5.44,M
4022,4095,3967,4095,2840,0.64,9.45,5.22,M
4095,3934,4095,3921,3031,0.59,9.29,5.42,M
3905,4036,4085,4049,2956,0.44,9.4,5.32,M
4095,4095,3905,3941,3050,0.86,9.07,5.66,M
4095,4095,3985,3996,3307,0.65,8.99,5.61,M
3949,4095,3894,3985,3063,0.86,8.33,5.68,M
3998,3910,4095,3975,3182,0.45,8.77,5.59,M
4006,4095,3971,3915,3191,0.4,8.98,6.03,M
4095,3933,4095,4095,3307,0.44,8.85,5.52,M
3953,4095,4095,4095,2984,0.47,8.62,5.92,M
4095,4054,4043,4095,3236,0.42,9.06,5.31,M
4095,4081,3927,3917,3258,0.48,9.2,5.67,M
4095,4095,4008,4031,3490,0.29,9.13,5.27,M
4062,4095,3909,4095,3666,0.85,8.87,6.7,M
3900,4095,4095,3962,2702,2.06,6.01,9.01,N
4095,3985,4095,3376,2688,1.14,10.08,5.12,N
4095,4095,3904,3129,2318,1.36,9.66,3.74,N
4095,3917,4000,3210,2257,0.55,9.68,3.78,N
4095,4007,3905,3240,2465,1.19,9.57,3.99,N
3972,4095,3995,3239,2349,0.93,9.44,4.3,N
4095,4024,4095,3043,2585,0.5,9.8,4.4,N
3894,3931,3989,3028,2650,0.61,9.51,4.49,N
3959,4095,4095,2822,2585,0.68,9.17,4.09,N
4095,4094,4045,3277,2840,0.83,9.14,4.22,N
4095,4095,3905,3289,2862,0.72,9.31,4.0,N
4095,4095,4095,3191,2992,0.94,9.32,4.05,N
4087,4095,4075,3132,3081,0.84,9.62,4.33,N
3906,4008,3982,3338,3101,0.65,8.93,4.01,N
4095,4017,4020,3423,3135,0.7,9.0,4.27,N
4047,4042,4095,3276,3068,0.58,9.08,4.12,N
4095,3947,3899,3251,3128,0.77,9.51,4.43,N
4095,4095,4046,3525,2999,0.59,9.48,4.16,N
4090,4095,3986,3446,3035,0.74,9.78,4.24,N
4095,3997,4095,3306,3169,0.93,9.49,4.06,N
4095,3946,4069,3443,3190,0.99,9.17,4.37,N
4095,4004,4095,2993,2970,0.96,9.05,4.23,N
3920,3976,4059,3500,3365,0.8,9.32,4.41,N
3994,4090,4007,3421,3254,1.18,9.09,4.49,N
4095,3903,3043,4095,4095,1.53,-8.17,6.83,O
4095,3121,2921,3465,3582,1.07,-7.7,6.65,O
4094,3007,2825,3311,3621,1.23,-7.97,6.58,O
3973,2801,2860,3181,4095,1.18,-8.84,6.45,O
4095,2696,3060,3281,3974,1.35,-8.18,6.0,O
3962,2799,2846,3475,4095,1.24,-8.87,6.25,O
4095,2982,3200,3258,4095,1.23,-8.13,6.18,O
4095,2977,3165,3402,4095,1.26,-8.39,6.08,O
4058,2864,3160,3446,4095,1.21,-8.63,6.16,O
4095,2863,3221,3390,4009,1.34,-8.09,5.97,O
4095,2865,3286,3605,3999,1.42,-8.55,5.99,O
4095,2950,3377,3289,4012,1.18,-8.48,6.33,O
4089,2900,3470,3392,3912,1.23,-8.19,6.17,O
4095,2843,3527,3545,4069,1.22,-8.7,5.92,O
4095,2744,3191,3492,4095,1.23,-8.31,6.25,O
4029,2901,3340,3593,3997,1.39,-8.68,6.33,O
4042,2951,3641,3676,4095,1.39,-8.71,6.06,O
4013,3079,3424,3711,4095,1.27,-8.41,6.31,O
4095,2855,3799,3594,4095,1.37,-8.46,5.83,O
4095,3004,3468,3586,3998,1.37,-8.54,5.8,O
4095,2951,3654,3777,4095,1.28,-8.47,5.79,O
4095,2928,3726,3821,4010,1.23,-8.84,5.91,O
3940,2916,3537,3570,4080,1.25,-8.5,5.78,O
4095,3037,3736,3814,3969,1.34,-8.4,5.79,O
4086,3136,3838,3778,4095,1.38,-8.16,5.75,O
3996,3639,3934,4095,4095,1.55,-8.21,5.38,O
3979,4095,4095,3820,3257,0.56,8.57,6.56,P
3909,4095,4085,4095,3052,0.57,8.59,6.57,P
3893,4095,4095,3412,2555,0.69,8.46,7.01,P
4095,3947,3627,3211,2408,0.59,8.17,7.35,P
4095,4095,4095,3647,2689,0.21,7.87,7.19,P
3905,4095,4095,3486,2911,0.41,7.96,7.17,P
3915,3936,4040,3818,2923,0.36,7.79,7.18,P
4061,4074,4046,3735,3042,0.44,7.6,7.36,P
4095,4095,4040,4079,2942,0.06,8.0,7.02,P
4067,4082,4065,4027,2790,0.33,8.09,7.53,P
4095,4095,4095,4095,2857,0.8,8.1,6.93,P
4095,3953,4094,4095,2817,0.74,7.88,7.17,P
4095,3967,3956,4008,3031,0.65,8.09,7.66,P
4012,3980,3914,4095,2920,0.66,8.31,7.22,P
4073,4095,3985,4095,3057,0.51,7.96,7.45,P
4037,3990,3984,4095,2870,0.83,8.0,7.28,P
4095,4095,3982,3869,2738,0.65,7.58,7.53,P
4095,4095,4095,4095,3052,0.64,8.13,7.66,P
4095,4095,4062,3815,2614,0.69,8.18,7.01,P
4095,4095,4094,4065,3008,0.42,8.3,7.47,P
4095,4058,3915,4095,2819,0.95,8.24,6.83,P
3934,3912,4095,3981,3123,0.8,7.61,7.39,P
4064,3928,4095,4095,3151,0.72,8.31,7.08,P
4095,4095,4095,4095,3052,0.85,8.1,6.97,P
4095,3893,4081,3917,3042,0.84,7.69,7.6,P
4095,4095,4067,4040,2998,0.49,8.04,7.37,P
3898,4007,4047,4093,3297,0.56,7.48,8.8,P
4095,4095,2157,2495,2826,2.2,6.66,8.9,Q
3966,4095,1852,1744,1648,1.17,6.43,8.7,Q
4095,3998,2083,2112,1946,1.26,6.33,9.2,Q
4095,4095,2039,2085,1939,1.49,6.56,8.6,Q
4017,4095,2075,2289,2137,1.65,6.79,8.93,Q
4095,3899,2162,2314,2067,1.57,6.25,8.65,Q
3946,4095,2139,2225,2089,1.01,6.01,9.24,Q
3928,4095,2416,2560,2278,1.48,6.0,9.01,Q
4095,4095,2457,2443,2324,1.07,5.98,9.16,Q
4095,4095,2233,2545,2307,1.31,5.86,9.38,Q
3959,4095,2262,2725,2360,1.15,6.22,9.27,Q
4095,4095,2457,2670,2353,1.57,6.17,8.97,Q
4095,4095,2327,2614,2483,1.51,6.35,9.52,Q
3906,4095,2521,2813,2545,1.45,6.39,9.05,Q
3962,3962,2341,2595,2562,1.26,5.76,9.55,Q
3992,4022,2512,2841,2598,1.43,5.84,9.09,Q
4095,3935,2260,2627,2565,1.95,5.95,8.98,Q
4078,4095,2536,3004,2632,1.31,5.94,9.34,Q
3928,4095,2259,2599,2642,1.74,6.57,9.23,Q
0,0,0,0,0,0.0,0.0,0.0,
0,0,0,0,0,0.0,0.0,0.0,
0,0,0,0,0,0.0,0.0,0.0,
0,0,0,0,0,0.0,0.0,0.0,
0,0,0,0,0,0.0,0.0,0.0,
0,0,0,0,0,0.0,0.0,0.0,
0,0,0,0,0,0.0,0.0,0.0,
0,0,0,0,0,0.0,0.0,0.0,
0,0,0,0,0,0.0,0.0,0.0,
0,0,0,0,0,0.0,0.0,0.0,
0,0,0,0,0,0.0,0.0,0.0,
0,0,0,0,0,0.0,0.0,0.0,
0,0,0,0,0,0.0,0.0,0.0,
0,0,0,0,0,0.0,0.0,0.0,
0,0,0,0,0,0.0,0.0,0.0,
0,0,0,0,0,0.0,0.0,0.0,
0,0,0,0,0,0.0,0.0,0.0,
0,0,0,0,0,0.0,0.0,0.0,
4095,2119,2776,2340,1863,-8.47,-1.69,6.6,S
3945,1864,2159,1905,1357,-8.25,-1.63,6.45,S
3914,2045,2363,2033,1374,-7.94,-0.89,6.38,S
4095,2057,2331,1941,1327,-8.81,-1.16,6.6,S
4095,2080,2570,2081,1536,-8.44,-1.02,6.27,S
4095,2088,2469,2094,1487,-8.68,-1.01,6.56,S
4095,2114,2637,2210,1511,-8.05,-1.25,6.18,S
4095,2045,2683,2152,1721,-8.43,-1.24,6.36,S
4095,2168,2750,2162,1625,-8.02,-1.49,6.49,S
3970,2196,2895,2301,1873,-8.4,-1.58,6.13,S
4020,2301,3032,2358,1767,-8.23,-1.66,6.38,S
4043,2362,2945,2436,1893,-7.88,-1.53,6.3,S
3950,2267,2776,2443,1883,-8.24,-1.63,6.39,S
3894,2291,2891,2440,2001,-8.14,-2.09,6.5,S
3998,2311,2893,2448,2013,-7.94,-1.67,6.75,S
3932,2404,2902,2353,1943,-7.61,-1.96,6.96,S
4057,2339,3109,2467,1906,-7.93,-1.84,6.46,S
4095,2355,3082,2517,2094,-7.96,-1.95,6.37,S
4095,2413,3065,2361,2030,-7.82,-1.74,6.48,S
4083,2361,3163,2465,2144,-7.64,-1.83,6.68,S
4016,2196,2985,2406,2051,-8.25,-2.04,6.48,S
3955,2444,3054,2514,2089,-7.74,-1.73,6.9,S
3909,2337,2918,2383,1954,-8.1,-1.7,6.68,S
4095,2468,3113,2672,2243,-8.44,-1.93,6.39,S
4095,2427,3112,2511,2225,-8.28,-1.7,6.66,S
3952,2392,3200,2682,2229,-8.46,-1.92,6.65,S
3954,2486,3678,2742,2403,-7.73,-2.65,6.51,S
4095,4062,2864,2696,2218,10.03,2.42,2.31,T
3940,4031,2940,2690,2631,9.87,2.32,2.02,T
4065,4095,2881,2752,2682,9.91,1.95,1.99,T
4095,4095,2938,2691,2560,10.23,1.65,2.25,T
4095,4033,2603,2622,2491,9.71,1.96,2.57,T
4054,4095,2870,2748,2702,9.47,2.01,2.22,T
4006,4081,2749,2613,2520,9.34,1.79,2.26,T
3975,4038,3005,2870,2617,9.74,1.81,2.19,T
4095,4095,3037,3074,2861,9.53,1.67,2.34,T
3995,4080,3143,3157,2704,10.24,1.93,2.45,T
3909,4095,2975,3006,2818,9.26,1.76,2.67,T
4095,3982,2968,3112,2768,9.28,1.82,2.52,T
4095,3994,3002,2992,2982,10.11,1.76,2.36,T
3979,4043,2998,3153,2990,9.9,1.85,2.41,T
3935,3975,3140,3141,3035,9.88,1.62,2.81,T
4095,3938,2750,2865,2741,9.23,1.67,2.71,T
4076,4028,3227,2974,2960,10.05,1.77,2.71,T
4095,4095,3089,2901,3065,10.15,1.6,2.79,T
4026,3939,3131,2916,2920,10.1,1.79,2.92,T
4095,4095,3034,3230,3077,9.95,1.76,2.89,T
4095,4095,2979,2900,2661,10.13,1.52,2.65,T
4095,3924,3234,3250,3069,9.5,1.7,2.88,T
3934,4039,3669,3628,3194,9.41,1.94,3.09,T
4011,3954,4075,2572,2344,4.29,-8.53,2.36,U
4095,4089,4095,2304,2171,3.35,-8.99,2.6,U
3990,4095,4095,2387,2230,3.46,-9.59,2.46,U
4095,3986,4089,2479,2026,3.31,-8.64,2.67,U
4095,4095,4095,2759,2443,3.97,-9.49,2.84,U
3928,4036,4053,2546,2497,4.27,-8.77,2.44,U
4003,4095,4010,2822,2398,3.89,-9.03,2.85,U
4095,4095,4095,2684,2524,4.01,-8.69,2.44,U
4023,4095,4095,2900,2489,3.83,-9.02,2.57,U
4071,4095,3990,2934,2579,4.1,-9.28,2.97,U
3920,4095,4095,2528,2430,3.62,-8.91,2.7,U
3982,4083,3995,2504,2483,3.63,-9.25,2.64,U
4095,4095,4095,2867,2719,3.64,-9.12,2.57,U
4041,3989,4042,2812,2654,3.98,-8.87,2.6,U
3954,3996,4095,3024,2829,3.85,-9.13,2.61,U
4095,4003,4082,2580,2533,4.06,-8.93,2.54,U
4058,4095,4069,2753,2566,3.79,-8.66,2.58,U
3977,4095,4085,2738,2425,3.62,-9.49,2.72,U
4095,4095,4095,2675,2546,3.59,-8.77,2.41,U
4095,4095,4095,3126,2941,3.81,-8.76,2.58,U
4057,3927,4088,2994,3001,3.69,-8.99,2.8,U
4077,4034,3966,3088,3022,3.85,-9.19,2.95,U
4095,4095,4094,3167,2998,5.72,-7.79,2.7,U
4095,3942,4095,1605,1269,0.51,-8.49,6.25,V
4095,4095,4095,1706,1613,0.48,-8.13,6.91,V
4095,3907,4031,1819,1761,0.34,-8.53,7.22,V
4095,4095,4072,2022,1788,0.6,-8.09,6.7,V
4095,4005,4095,2092,1759,0.41,-8.14,6.45,V
4095,4095,4095,2221,1853,0.33,-8.15,6.68,V
3941,4045,3939,1612,2420,1.51,-9.08,5.31,V
4095,4095,4095,1878,2521,1.2,-8.52,5.3,V
4095,4095,4095,2129,2648,1.06,-9.4,4.88,V
3936,4095,3901,2159,2566,0.68,-8.8,5.19,V
4090,4087,4095,2233,2675,1.3,-9.43,4.87,V
3924,4073,4095,2399,2866,1.3,-8.84,5.0,V
4095,4095,4009,2664,2763,1.34,-8.21,5.27,V
0,0,0,0,0,0.0,0.0,0.0,
0,0,0,0,0,0.0,0.0,0.0,
0,0,0,0,0,0.0,0.0,0.0,
0,0,0,0,0,0.0,0.0,0.0,
0,0,0,0,0,0.0,0.0,0.0,
0,0,0,0,0,0.0,0.0,0.0,
0,0,0,0,0,0.0,0.0,0.0,
0,0,0,0,0,0.0,0.0,0.0,
0,0,0,0,0,0.0,0.0,0.0,
0,0,0,0,0,0.0,0.0,0.0,
0,0,0,0,0,0.0,0.0,0.0,
0,0,0,0,0,0.0,0.0,0.0,
0,0,0,0,0,0.0,0.0,0.0,
0,0,0,0,0,0.0,0.0,0.0,
0,0,0,0,0,0.0,0.0,0.0,
0,0,0,0,0,0.0,0.0,0.0,
0,0,0,0,0,0.0,0.0,0.0,
0,0,0,0,0,0.0,0.0,0.0,
0,0,0,0,0,0.0,0.0,0.0,
0,0,0,0,0,0.0,0.0,0.0,
4095,4095,4095,4064,1625,0.32,-8.14,6.68,W
4095,4095,4095,3988,1823,0.3,-7.69,6.24,W
4095,4095,4095,4095,1962,0.61,-8.27,6.8,W
4095,4026,4095,4095,1969,0.41,-8.19,6.33,W
4002,4095,4051,4028,2280,0.9,-8.14,6.73,W
4095,3911,4095,4059,2321,0.73,-8.14,6.42,W
4095,4095,4095,4095,2129,0.64,-8.23,6.65,W
4095,4095,4025,4091,2519,0.41,-8.36,6.55,W
4095,4067,4095,4095,2361,0.87,-8.35,6.44,W
4095,4095,4095,4095,2585,0.81,-7.99,6.82,W
4095,3914,4095,4095,2667,0.56,-8.25,6.47,W
3962,4095,4095,3993,2768,0.66,-8.08,7.04,W
4095,3922,3996,4095,2727,0.93,-8.56,6.49,W
3894,4095,4095,4095,2326,1.03,-8.38,6.73,W
3893,3997,3923,4095,2614,0.46,-8.0,6.64,W
4005,3946,3981,4089,2553,0.76,-7.92,6.71,W
4095,4095,3969,3922,2964,0.49,-8.43,6.75,W
4092,4095,4095,4095,2816,0.7,-7.98,6.67,W
4095,3942,3930,4095,3055,0.72,-8.23,6.62,W
4095,4095,3933,4095,3016,0.92,-8.19,6.79,W
4095,4095,4095,4095,2842,0.87,-8.47,6.51,W
3954,4095,4095,4033,3225,1.37,-8.53,6.38,W
2978,3948,4095,2614,2210,2.36,-8.93,5.8,X
2021,3985,3089,1974,2007,2.54,-8.11,6.87,X
1809,3900,3017,1958,1819,2.88,-7.11,7.91,X
1904,3925,2892,1898,1948,2.87,-7.45,7.63,X
1978,4076,2960,1960,1851,2.69,-7.36,7.28,X
1904,4016,2794,1919,1833,2.91,-7.84,6.93,X
2253,3972,3061,2195,1915,2.29,-7.81,7.16,X
2101,4095,2855,2071,2081,2.45,-7.35,7.11,X
2186,4095,2940,1977,1936,2.77,-7.36,7.13,X
2359,3915,3114,2239,2018,3.28,-7.57,7.35,X
2111,4095,2783,2130,1909,2.77,-6.64,7.44,X
2177,4004,2833,2184,1932,1.81,-7.84,7.46,X
2247,4095,2790,2133,1971,3.3,-7.6,6.73,X
2335,4095,3097,2188,1956,3.36,-7.7,6.86,X
2514,4095,3208,2404,2113,3.06,-7.88,6.65,X
2590,4095,3415,2228,2186,3.01,-7.88,6.74,X
2692,3931,3467,2216,2163,2.86,-7.61,6.49,X
2693,4002,3213,2455,2225,2.95,-8.15,6.15,X
2664,4014,3540,2385,2205,2.57,-7.74,6.87,X
4095,4095,3932,4095,4016,2.14,-7.04,7.29,X
3896,4095,3771,3106,3791,1.89,-8.64,5.99,X
2082,4095,2419,2084,1833,2.2,-8.64,5.15,X
2224,3949,2514,1921,1872,1.84,-8.62,5.64,X
2444,4089,2310,2087,2025,2.12,-8.28,5.7,X
2691,4095,2603,2187,2028,2.16,-8.93,5.05,X
2873,4095,2440,2199,2116,2.03,-9.0,5.28,X
2693,4067,2439,2133,2051,2.32,-8.95,5.1,X
3015,4095,2511,2433,2119,2.18,-8.81,5.23,X
3199,4095,2632,2435,2237,2.1,-8.19,5.37,X
3121,3984,2630,2398,2216,1.93,-8.84,5.69,X
4095,4057,3518,4044,3303,2.01,-7.8,6.11,X
3899,1891,1936,2892,3939,2.15,-8.31,0.76,Y
4037,1912,2038,3345,4095,1.52,-9.44,1.08,Y
3922,1891,1997,3332,4076,2.38,-9.96,1.28,Y
4095,2014,2202,3231,4095,2.31,-9.38,2.88,Y
4051,1874,2208,3316,4095,2.14,-9.89,2.59,Y
4095,2068,2189,3383,4095,1.99,-9.14,2.6,Y
4095,2116,2260,3525,4046,2.0,-9.09,2.62,Y
4095,1914,2349,3362,4095,2.3,-9.61,2.58,Y
4087,1994,2544,3535,4095,2.45,-9.05,2.63,Y
4095,2042,2679,3415,3899,2.26,-9.31,2.81,Y
3968,1923,2421,3231,4084,2.46,-8.86,3.19,Y
4095,2128,2709,3608,4095,2.25,-9.53,3.2,Y
4095,2110,2829,3408,3968,2.29,-8.88,3.27,Y
4005,2135,2894,3600,4086,2.29,-9.08,3.08,Y
3999,2072,2930,3365,3964,2.32,-9.51,2.7,Y
4095,2160,2922,3431,4078,2.21,-9.27,2.77,Y
4031,2114,2979,3514,4090,2.16,-9.68,2.76,Y
4095,2080,2861,3520,4095,1.97,-9.44,2.72,Y
3892,2078,2932,3573,4095,2.16,-9.46,2.4,Y
4095,2266,2863,3805,3952,1.92,-9.31,2.87,Y
4095,2228,2804,3519,4095,2.0,-9.87,2.82,Y
4095,2244,2969,3809,3961,2.19,-9.07,2.63,Y
4026,4095,2326,2715,2483,0.84,-9.18,4.42,Z
4095,4095,2146,2687,2083,1.15,-9.13,4.1,Z
4095,4095,2032,2826,2062,0.86,-9.03,3.64,Z
4095,3898,2219,2680,2162,1.72,-9.63,3.47,Z
4087,3954,2358,2725,2087,1.63,-9.73,3.64,Z
4080,4095,2366,2957,2480,1.56,-9.9,3.48,Z
3958,4095,2488,2741,2390,1.4,-9.61,3.81,Z
4095,3921,2542,2988,2540,1.47,-9.57,3.52,Z
3918,4095,2550,2936,2459,1.3,-9.69,3.68,Z
4043,4095,2649,3034,2602,1.08,-9.58,3.67,Z
4095,4095,2571,3041,2651,1.59,-9.76,3.34,Z
4095,3957,2576,3101,2703,1.54,-9.54,3.38,Z
3970,4095,2696,3097,2747,1.95,-9.78,3.11,Z
4046,4095,2635,3158,2567,1.82,-9.97,3.25,Z
4095,3930,2607,3145,2587,1.39,-9.58,3.22,Z
3968,3910,2679,3068,2660,1.44,-9.17,3.24,Z
4034,4031,2785,3269,2754,1.41,-9.38,3.11,Z
4095,4095,2854,3162,2741,1.62,-9.28,3.16,Z
4095,4095,2697,3206,2611,1.45,-9.8,2.99,Z
3918,4095,2859,3193,2625,1.39,-9.09,3.35,Z
3899,4010,2859,3372,2699,1.26,-9.65,3.57,Z
3933,4095,2556,2859,2400,1.59,-9.33,3.2,Z
3960,4095,3024,3330,2773,1.73,-9.55,3.16,Z
4056,4095,2999,3435,2840,1.67,-9.02,3.13,Z
4095,4045,2998,3183,2945,2.04,-9.63,3.12,Z
4095,3945,3021,3168,2759,1.51,-9.12,3.31,Z
3927,4078,2823,3213,2956,1.47,-9.5,3.08,Z
4095,4095,2871,3296,2969,1.67,-9.81,3.36,Z
3913,4075,2677,3044,2550,1.64,-9.47,3.27,Z
4095,4095,2950,3242,2925,1.35,-9.58,3.17,Z
4095,4095,2885,3345,3036,1.68,-9.66,3.19,Z
4095,4007,3355,3325,2993,1.38,-9.51,3.55,Z
3410,4006,3980,2628,3495,-0.96,-9.31,5.95,K
2254,4046,4090,1944,2478,0.68,-8.15,5.19,K
2626,4095,4095,2274,2525,-0.15,-8.65,5.81,K
2794,4095,4095,2346,2706,0.16,-8.95,5.44,K
2947,3970,3996,2463,2764,0.42,-8.3,5.81,K
3218,4021,4040,2377,2908,0.3,-8.74,6.21,K
3468,3921,4089,2495,2831,0.17,-9.13,6.19,U
4007,3993,3999,1695,1662,5.94,-6.2,7.41,U
4072,3926,3982,1876,1988,5.64,-6.29,6.94,U
4095,4095,4077,2112,2125,5.98,-6.39,6.81,U
4095,4095,4095,2147,2300,6.03,-6.38,5.92,U
4095,4095,4038,2365,2332,6.4,-6.24,5.7,U
4095,4083,4095,2271,2449,6.48,-6.2,5.96,U
4080,4017,4095,2212,2493,6.03,-6.03,5.69,U
4095,3950,4095,2419,2645,6.08,-6.63,5.8,U
4000,4095,4051,2272,2540,6.82,-6.05,5.67,U
4060,4095,3939,2482,2803,6.04,-6.36,5.29,U
4081,4095,4095,2625,2598,6.08,-6.62,5.29,U
4035,4095,4057,2576,2756,6.32,-6.14,5.6,U
3991,3973,3960,2642,2613,6.07,-6.56,5.59,U
4095,3944,3954,2559,2687,6.81,-6.41,5.34,U
3918,3890,4095,2695,2701,5.76,-6.51,5.32,U
4095,4024,4095,2503,2856,6.46,-6.37,5.4,U
4095,2382,4095,1873,1340,9.98,1.38,5.55,R
4066,2351,4095,2101,1793,8.88,1.45,5.05,R
3939,2544,4095,2171,1959,8.72,1.35,4.66,R
3900,2705,4024,2167,2015,9.34,1.68,4.58,R
4095,2641,3903,2307,2068,8.65,1.78,4.03,R
4095,2569,4095,2167,2179,9.7,1.69,4.4,R
4075,3905,3968,3137,3489,8.63,1.79,4.73,R
